acc_x, acc_y, angular_z, stamp, 
-0.018689274787902832,-0.008368313312530518,1.0648424652726258e-10,1791573150253862173
0.006602942943572998,-0.008336663246154785,1.1776860077509022e-10,1791573150283800907
-0.01843118667602539,0.011347830295562744,1.2947800103022327e-10,1791573150313683464
0.01601994037628174,0.025492191314697266,1.600677448240823e-10,1791573150344068004
0.021318376064300537,-0.008909463882446289,2.4297030506369457e-10,1791573150376483710
-0.02548772096633911,-0.0018775463104248047,3.183282137611151e-10,1791573150403706929
-0.01115262508392334,0.00699084997177124,2.433433795868453e-10,1791573150433422950
0.012172102928161621,0.0032165050506591797,2.631673821421535e-10,1791573150463598006
0.015538334846496582,-0.018313467502593994,2.325389979442996e-10,1791573150493470302
-0.002628922462463379,-0.01626873016357422,1.365653267084917e-10,1791573150522474456
-0.009960532188415527,0.007360935211181641,5.248851827840331e-11,1791573150553404746
-0.018909156322479248,0.005795538425445557,2.459886836281602e-11,1791573150584407902
0.020879268646240234,-0.01743835210800171,3.041049591080533e-11,1791573150617018831
0.024276793003082275,-0.024338841438293457,3.2876337486149147e-12,1791573150643544914
-0.013584136962890625,0.0011950135231018066,-1.3788915557326134e-11,1791573150673584154
-0.01712280511856079,0.006873726844787598,-2.357333084485367e-11,1791573150703099418
0.010007798671722412,0.008794546127319336,-5.732152535111349e-11,1791573150733029025
0.013578176498413086,-0.02701401710510254,-8.396771815626006e-11,1791573150762960894
-0.026081860065460205,-0.005072534084320068,-7.046341387129386e-11,1791573150792977988
-0.008036196231842041,0.01862424612045288,-8.532878306757218e-11,1791573150823305404
-0.0004406571388244629,0.015198290348052979,1.819553589688943e-06,1791573150856059735
0.046575188636779785,-0.002755403518676758,-3.9378785426894646e-10,1791573150882898008
0.012203454971313477,-0.018777906894683838,-3.22708651447393e-10,1791573150912744238
-0.014851212501525879,-0.0004973411560058594,-2.6349308614915806e-10,1791573150942688767
-0.0004038810729980469,0.03003537654876709,-2.5472117962062303e-10,1791573150972672355
0.004975736141204834,0.0011029243469238281,-2.425562396989611e-10,1791573151002616411
0.03533118963241577,-0.03493863344192505,-1.603428886361561e-10,1791573151032561925
-0.013370990753173828,-0.013158202171325684,-6.228028868705936e-11,1791573151064621565
-0.04738914966583252,0.040768980979919434,-7.234530716375247e-11,1791573151095184235
0.003347933292388916,0.020713984966278076,2.2727007501556273e-06,1791573151121408229
0.02506333589553833,-0.020786046981811523,-1.874585915944335e-10,1791573151152371492
-0.016444683074951172,-0.020751237869262695,-1.495304551404182e-10,1791573151181329357
-0.007433950901031494,0.02056175470352173,-1.426761963246378e-10,1791573151211307021
-0.019801199436187744,0.014935016632080078,-1.2812503575644663e-10,1791573151242239261
0.010992705821990967,-0.014204978942871094,-1.017171049519272e-10,1791573151272222521
0.02711564302444458,-0.028541266918182373,1.8526024859037683e-06,1791573151304394751
-0.03583580255508423,0.01663374900817871,2.062498017101013e-06,1791573151333292793
-0.0031412839889526367,0.02017766237258911,2.1247923144139177e-06,1791573151361343144
-0.0064237117767333984,0.02165806293487549,-6.10565464988515e-11,1791573151391946380
0.011604666709899902,-0.012739837169647217,1.0717917750489682e-11,1791573151421948552
-0.006440103054046631,-0.016219913959503174,1.2365098620330073e-11,1791573151452121991
-0.03873240947723389,0.003617703914642334,-1.447210580324384e-11,1791573151481864289
-0.0007772445678710938,0.026889920234680176,-3.8973101359703046e-11,1791573151512523042
0.03164076805114746,-0.02543431520462036,1.887021364048925e-06,1791573151544111125
0.013352274894714355,-0.027107298374176025,2.1576678312684747e-06,1791573151571736847
-0.01729053258895874,0.012590348720550537,-9.137859948593354e-13,1791573151601693404
-0.008213520050048828,-0.008959531784057617,-1.282023068278867e-11,1791573151631638563
0.009972333908081055,0.005248546600341797,1.2399045152388643e-11,1791573151661556536
0.0438917875289917,-0.020093560218811035,5.824195183487716e-11,1791573151691512053
-0.026555776596069336,0.019433200359344482,4.345200257594016e-11,1791573151721488325
-0.010466694831848145,0.030075669288635254,3.3719213234732176e-11,1791573151751127670
-0.026388943195343018,0.03872627019882202,7.471863426004232e-11,1791573151784648166
0.009593307971954346,-0.01894700527191162,2.212263836641662e-06,1791573151811593021
-0.026371479034423828,-0.0010226964950561523,1.5447293746349835e-10,1791573151840358697
-0.03863835334777832,0.027617692947387695,1.68666648251805e-10,1791573151871262224
-0.0021386146545410156,0.04707282781600952,2.9925764445992066e-10,1791573151900288580
0.04487568140029907,-0.00179290771484375,5.582320035194995e-10,1791573151931213853
0.007073640823364258,-0.009103238582611084,6.485276906313452e-10,1791573151961127220
-0.032336413860321045,0.0033953189849853516,5.977518732904627e-10,1791573151992146425
0.00934821367263794,0.014015913009643555,6.925427660656671e-10,1791573152024532326
0.032966434955596924,-0.022141754627227783,1.0199884831565152e-09,1791573152051094290
0.03457832336425781,-0.02395939826965332,9.247743730374916e-10,1791573152081049000
-0.024882256984710693,0.013856589794158936,1.990389287024602e-06,1791573152111005588
-0.03368508815765381,0.003047645092010498,6.416757473933752e-10,1791573152140963943
0.03147071599960327,0.0225943922996521,7.851064608210377e-10,1791573152170924017
0.026136577129364014,-0.0296517014503479,1.9847414536016616e-06,1791573152200970021
-0.031343162059783936,-0.02413463592529297,8.221334820052444e-10,1791573152232441316
-0.014911949634552002,0.01733577251434326,7.755806086579314e-10,1791573152262990719
-0.0029876232147216797,0.013200759887695312,-0.0007249447569594833,1791573152290780933
0.8593548536300659,0.23883676528930664,0.024245222329409538,1791573152320784137
0.3406333923339844,0.13973450660705566,0.2202905798774722,1791573152350793682
1.2458726167678833,0.17418354749679565,0.31819660646219,1791573152380793105
0.24040299654006958,-0.06568866968154907,0.33558563621076937,1791573152410977396
0.5747985243797302,0.14765626192092896,0.40930723839488853,1791573152440821190
0.2884552478790283,0.5666183829307556,0.4596670732385913,1791573152472577472
0.26467519998550415,0.16896981000900269,0.6201743611932841,1791573152502256865
-0.16682124137878418,0.24952936172485352,0.7520562163422273,1791573152530766409
0.6895455718040466,0.6252045035362244,0.8148565386001099,1791573152560699961
0.11673599481582642,-0.4602460265159607,0.889635152799518,1791573152590671279
0.6922450065612793,0.28996890783309937,0.9348671076683105,1791573152620668546
0.03923088312149048,0.8426696062088013,1.0499222888767734,1791573152649975901
-0.3835417628288269,0.10402721166610718,1.0286786077257999,1791573152680891742
-0.1812182068824768,0.009212255477905273,1.0059262321117342,1791573152712157804
-0.6006590127944946,0.3576244115829468,1.1264051667868085,1791573152739895934
-0.26250290870666504,0.019112586975097656,1.0039386155221093,1791573152769816553
0.1862505078315735,-0.04710114002227783,0.9785417891874406,1791573152799749861
-0.1401575207710266,-0.19603198766708374,1.0084025868874087,1791573152829712369
-0.38963693380355835,0.39799171686172485,1.0017971820038554,1791573152859682133
-0.3337559700012207,0.44565218687057495,0.9996766617788334,1791573152889614168
0.024898171424865723,0.148654043674469,0.9749218320301718,1791573152920714848
0.08302903175354004,0.01723724603652954,0.9477618358780282,1791573152952185448
0.22600460052490234,0.024209201335906982,1.1330618295668275,1791573152978598549
0.006840407848358154,0.10223531723022461,0.9812288466498501,1791573153009456013
-0.12663286924362183,0.7137641310691833,0.9966040823727887,1791573153039412065
-0.02250725030899048,0.3844245672225952,1.0068061827233377,1791573153069395443
-0.28442931175231934,0.26138943433761597,1.056007337813891,1791573153098309275
-0.2288009524345398,-0.19787055253982544,0.9693763131567733,1791573153129345408
-0.13132596015930176,-0.4105026125907898,0.969395595985298,1791573153160394491
-0.15890413522720337,-0.038496553897857666,0.9919717289423821,1791573153192185496
-0.5739821195602417,-0.020507216453552246,1.1724626566615453,1791573153219259954
0.2371591329574585,-0.15676480531692505,1.0412906670764281,1791573153249081891
0.10921412706375122,0.40324199199676514,1.007514436523401,1791573153279007198
0.17146694660186768,0.7967789173126221,1.0030052715221658,1791573153308962033
-0.1558903455734253,0.1416422724723816,0.9993046107702498,1791573153338914144
-0.12902647256851196,-0.26199227571487427,1.0155975463277378,1791573153368825605
0.18016499280929565,-0.23006778955459595,0.9972196083539057,1791573153399316712
-0.05861860513687134,0.14631807804107666,0.9083626775206199,1791573153432129633
-0.19027841091156006,0.7527719140052795,1.1088794909127218,1791573153458740461
-0.10402154922485352,0.3059613108634949,1.0068409134193352,1791573153488684238
-0.09358775615692139,0.018641114234924316,1.016251639182914,1791573153518661970
0.15747398138046265,-0.03052234649658203,1.0051065486953084,1791573153548581160
-0.16736918687820435,0.1896975040435791,1.030662434163269,1791573153578534867
-0.4340675473213196,0.030434250831604004,1.054150157629906,1791573153608496975
-0.139184832572937,-0.017330646514892578,0.9714462911926443,1791573153640585447
0.17991703748703003,0.41285109519958496,1.0149284570367283,1791573153670943168
0.05630815029144287,0.4030362367630005,1.0762186733486174,1791573153698370540
-0.25283390283584595,0.021220624446868896,0.983145777994823,1791573153728250255
-0.010054588317871094,-0.32170236110687256,1.0294042058396353,1791573153757296895
-0.05622655153274536,-0.04650390148162842,0.9919883855771021,1791573153788183646
0.5825933814048767,0.2148074507713318,0.9946460254924403,1791573153818158568
-0.21567535400390625,0.6894205212593079,0.9792365138169982,1791573153848531416
-0.370963990688324,0.3484798073768616,0.9573855082032575,1791573153880640490
-0.1758662462234497,0.07128936052322388,1.1291612037296144,1791573153908028088
0.32572609186172485,-0.15978670120239258,1.0154694855286568,1791573153938033149
-0.22176140546798706,-0.0431399941444397,1.0112500762989447,1791573153967906164
0.13215410709381104,0.03202259540557861,1.027232904580529,1791573153997892929
-0.37189167737960815,0.6394767165184021,1.0363497481598076,1791573154027867736
0.6685509085655212,0.3186725974082947,1.015280098565292,1791573154057819270
-0.35595399141311646,0.0638541579246521,0.9804313525573506,1791573154088518311
-0.22955191135406494,-0.10098350048065186,0.9549146905237864,1791573154120279326
-0.31201422214508057,-0.08388155698776245,1.1358207085165513,1791573154147692225
0.7695297002792358,0.3497588634490967,1.02119375261646,1791573154177594148
-0.16964298486709595,0.006369233131408691,0.9690795958792963,1791573154207518798
-0.08974862098693848,0.3209693431854248,0.9738837393149417,1791573154237490481
-0.5761229991912842,0.3258410096168518,1.056924432387363,1791573154267468985
0.14002805948257446,0.04881519079208374,1.05651737857841,1791573154297444251
0.18665748834609985,-0.288457989692688,0.9671006532918752,1791573154328943855
0.1812903881072998,-0.26043635606765747,0.9522206217890548,1791573154360601175
-0.29549646377563477,0.5954716801643372,1.1841097309307693,1791573154386301443
-0.12910842895507812,0.4954748749732971,0.9746646028761096,1791573154417235742
-0.02994638681411743,0.18973171710968018,0.9944799820309974,1791573154447132763
0.09328728914260864,-0.09570813179016113,1.0057866689864439,1791573154477131320
0.11484962701797485,0.14133650064468384,1.0090918880696653,1791573154507162924
-0.3798214793205261,-0.20631736516952515,1.0044360976441489,1791573154537095114
0.2555202841758728,-0.5646626353263855,0.9616897416150877,1791573154568541362
0.2507094144821167,0.010484695434570312,0.9793156291312299,1791573154599692459
-0.10427284240722656,0.6219351291656494,1.095621289361564,1791573154626973412
-0.6857269406318665,0.4277956485748291,1.018974689376612,1791573154656850125
0.24135440587997437,0.5365673303604126,1.01356571138846,1791573154686841373
-0.10616785287857056,-0.38921427726745605,1.0039323733632843,1791573154716737539
0.42442774772644043,-0.16050118207931519,1.0012590644987636,1791573154746747393
-0.4158758521080017,0.286812961101532,1.0167835503992195,1791573154776697365
-0.19965022802352905,0.1270502805709839,0.9488132986246492,1791573154808716177
0.40661686658859253,0.2802526354789734,1.0005475901759417,1791573154839104691
-0.09961831569671631,0.5997136235237122,1.102848497336224,1791573154876503657
0.0586775541305542,0.4326286315917969,0.9853279181506962,1791573154906434679
0.2322458028793335,0.3329557776451111,0.9945652563608145,1791573154936452286
0.4810979962348938,-0.14485543966293335,0.9833631687118118,1791573154968893904
-0.20183950662612915,-0.11364632844924927,1.1223916196904926,1791573154996614325
-0.0063838958740234375,0.060325682163238525,1.034711129367058,1791573155025321711
-0.2524176836013794,0.17396509647369385,0.953099273846408,1791573155056216969
0.18047469854354858,0.7083328366279602,0.9942704300104183,1791573155086176721
-0.22798138856887817,0.13631945848464966,0.9938614409628935,1791573155116123767
-0.21808987855911255,-0.21612095832824707,1.0010866199385098,1791573155146103513
0.14113229513168335,0.01498323678970337,0.9765260117438108,1791573155176520503
-0.16691994667053223,0.0644228458404541,0.9171767267330572,1791573155208488267
-0.026288926601409912,-0.02890324592590332,1.0875028314207287,1791573155235963657
-0.3447997570037842,0.5307707190513611,1.0301548465652512,1791573155265857124
0.029932916164398193,0.5835579037666321,1.0187571177198722,1791573155295894077
-0.09151476621627808,0.2874249219894409,1.0207290183927826,1791573155325859492
0.4157242178916931,-0.3211356997489929,1.0296524893230927,1791573155355769407
-0.20093625783920288,-0.37982475757598877,1.041764512968676,1791573155385756287
0.3435751795768738,0.04416757822036743,0.9892149367117109,1791573155416755998
-0.4149952530860901,0.7185922861099243,0.9768022504122695,1791573155447517548
0.2738375663757324,0.3925480246543884,1.060332251463796,1791573155475598528
-0.37974393367767334,0.12222445011138916,0.999193461102475,1791573155505546065
0.38410985469818115,-0.2580350637435913,1.0398785905250039,1791573155535433643
-0.5754949450492859,-0.17586147785186768,1.0386483143048433,1791573155565422379
0.5840713977813721,0.26971131563186646,0.9955501426792117,1791573155595416118
-0.07530897855758667,0.4018222689628601,0.9545199757763361,1791573155625467162
-0.22116529941558838,-0.14123821258544922,0.9606376282664093,1791573155656367985
-0.040009915828704834,0.23391884565353394,0.9431960172806342,1791573155688537772
0.13969290256500244,0.36701059341430664,1.1052631709640894,1791573155715153551
-0.00938504934310913,-0.2660213112831116,0.9855745489874097,1791573155745153252
0.12842130661010742,-0.16340821981430054,1.0010549269185383,1791573155775090837
-0.0769386887550354,0.38419264554977417,1.0067771021119503,1791573155805112061
-0.13319450616836548,0.5238639116287231,0.9863906361308064,1791573155835086398
0.06274473667144775,0.5526831150054932,1.0318011463455672,1791573155864986773
-0.2797057628631592,-0.014992773532867432,1.042056407530715,1791573155896349878
0.8032001852989197,0.3243657350540161,0.9998476739321583,1791573155928347493
-0.047856807708740234,0.11751347780227661,1.105823085929625,1791573155955017099
-0.059162914752960205,-0.5877997875213623,0.986518277399624,1791573155984740717
-0.6239587068557739,-0.05966907739639282,1.0031018203643514,1791573156014739934
0.3332573175430298,0.3548594117164612,1.0646024538497323,1791573156043664437
-0.14861369132995605,0.3955910801887512,0.9747178661808641,1791573156074689557
0.14469754695892334,0.37707483768463135,0.9708665483959934,1791573156104607608
-0.28380781412124634,-0.35161954164505005,0.9502114625239999,1791573156135354945
0.16726970672607422,0.041848838329315186,1.0405873189429813,1791573156164498152
0.2447497844696045,0.03480905294418335,1.0174830698275938,1791573156194474363
-0.0985860824584961,0.18005448579788208,1.0040190832815672,1791573156224388779
-0.4475792646408081,0.37638938426971436,1.0278991783611027,1791573156254341255
-0.47553300857543945,0.5267517566680908,1.0604804946875364,1791573156284264700
0.7765629291534424,0.02156311273574829,1.058006144815409,1791573156314276327
-0.041050612926483154,-0.049253880977630615,0.9901702062183221,1791573156344635832
0.2274261713027954,-0.4712263345718384,0.8900868402507616,1791573156377041599
-0.4454629421234131,0.5529812574386597,1.110494212610109,1791573156404183013
0.25182396173477173,0.5384852886199951,1.037671830013143,1791573156434036511
-0.1169469952583313,0.14679938554763794,1.0183100088462018,1791573156464010865
0.04155939817428589,0.18383854627609253,0.9787231194777808,1791573156494029365
-0.2796536087989807,0.07986235618591309,0.9961747758115329,1791573156523896017
0.004237055778503418,-0.23251700401306152,1.0303945772378753,1791573156553877502
0.23595082759857178,0.1822531819343567,1.0104339493213648,1791573156584384420
0.06960487365722656,0.22760432958602905,0.9484502979488513,1791573156616351953
-0.23704063892364502,0.42041832208633423,1.0810620864871932,1791573156643774473
-0.4991862177848816,0.2863789200782776,1.0060922083465853,1791573156673699470
-0.18103563785552979,-0.35928893089294434,1.0210263847157623,1791573156703594039
0.14441829919815063,-0.2899037003517151,1.0208222956158834,1791573156733581325
-0.09702825546264648,0.0841720700263977,1.0054599390131453,1791573156763569056
-0.3318138122558594,0.4252655506134033,1.0408898997643463,1791573156793529560
0.1386328935623169,0.4755805730819702,1.0177251893873853,1791573156825007817
0.08087742328643799,0.1455320119857788,0.9802982233334541,1791573156856354379
0.8943420052528381,-0.09114599227905273,1.0693344115684957,1791573156883446267
-0.5816190838813782,-0.08305209875106812,0.9802898099088705,1791573156913276842
-0.2060527801513672,0.044890522956848145,1.0106056612563759,1791573156943259269
-0.11546868085861206,0.23695504665374756,1.045637974715112,1791573156973175463
0.37198150157928467,0.5977531671524048,1.0306327312240986,1791573157003135128
-0.12937915325164795,0.17624354362487793,0.9919201815909444,1791573157033151426
-0.06948614120483398,0.11886560916900635,0.9584934280495458,1791573157064641377
-0.1110982894897461,-0.1632007360458374,0.9779496303733548,1791573157096388599
0.2239353060722351,0.00270843505859375,1.133901743338386,1791573157123133440
-0.0916404128074646,0.03815072774887085,0.9907097478639687,1791573157152934217
-0.4159556031227112,0.5089885592460632,0.994605624700348,1791573157182902212
-0.1569032073020935,0.5149458646774292,1.0305971922107908,1791573157212852545
0.24193376302719116,0.1912323236465454,1.0151147508059273,1791573157242772887
-0.03252774477005005,-0.5172327756881714,0.9875001034927386,1791573157273165345
-0.5644665956497192,-0.0856742262840271,0.9592116679536328,1791573157304470689
0.12159663438796997,0.1053551435470581,0.9949649282914802,1791573157334711198
-0.6352242827415466,-0.3195788860321045,1.0639117854745768,1791573157372583815
-0.010900676250457764,-0.5289015173912048,1.0101071316897308,1791573157402589522
-0.2713505029678345,0.16777712106704712,1.0074754669547856,1791573157432465937
0.516327977180481,0.5730183720588684,0.9408255581084872,1791573157464854615
-0.35570573806762695,0.5000165104866028,1.1382075505654647,1791573157492478127
-0.17095434665679932,0.259022057056427,1.0297143122918955,1791573157522335561
0.21573883295059204,-0.31595557928085327,1.0264497407922453,1791573157551287153
-0.1389971375465393,0.08884340524673462,0.9893841141552807,1791573157581310105
-0.21097075939178467,0.09759867191314697,0.9736869739285984,1791573157612155181
-0.45523154735565186,0.18445974588394165,1.0133047476187882,1791573157642203170
0.22982221841812134,0.2999112606048584,1.039824948098168,1791573157672685764
-0.21894711256027222,0.5059884786605835,0.9688249976213565,1791573157704422392
0.4781677722930908,-0.044949233531951904,1.0385390721721557,1791573157732076210
-0.3987998366355896,-0.08123373985290527,0.9843007948178705,1791573157762017426
-0.24721300601959229,-0.36518359184265137,1.0146117237393482,1791573157791891594
0.010004699230194092,0.37517470121383667,1.0224038029650568,1791573157821922620
-0.04929995536804199,0.6185438632965088,1.0095333966270466,1791573157851845470
-0.4061546325683594,0.4283756613731384,1.0112691616192646,1791573157881776147
-0.045783936977386475,-0.07258951663970947,1.0270757840377762,1791573157911864707
0.2597247362136841,-0.18915265798568726,0.9349317179264404,1791573157944956182
0.41305071115493774,0.020675718784332275,1.1361135198694807,1791573157971652296
0.01424938440322876,0.34409791231155396,0.9933332744916673,1791573158001625766
-0.23541182279586792,0.2891109585762024,0.992213557842243,1791573158031532515
-0.37999290227890015,0.4091677665710449,1.0146435356265195,1791573158061494500
0.15370947122573853,0.26028138399124146,1.0404543047568031,1791573158091485385
-0.26870113611221313,-0.048250555992126465,1.0099329075817336,1791573158121453349
0.1784515380859375,-0.1921645998954773,0.992817815628642,1791573158152473213
-0.2782641649246216,-0.05782794952392578,0.9776362317758087,1791573158184461567
-0.07060325145721436,0.4779714345932007,1.1327025753333473,1791573158211420465
0.6033246517181396,0.5964170098304749,1.0043078477752727,1791573158240314619
-0.6498873829841614,0.21518105268478394,0.9830239852463377,1791573158270293453
-0.32466137409210205,0.0573464035987854,0.9518963588714561,1791573158301266206
-0.5794208645820618,-0.2946545481681824,1.0204246461677238,1791573158330302580
0.4375011920928955,0.04079622030258179,0.9844850676956259,1791573158361369000
-0.07067239284515381,0.47876399755477905,0.9764556928578422,1791573158392706118
-0.05960887670516968,0.599163293838501,0.9542879291385453,1791573158423905044
-0.2900572419166565,0.181490957736969,1.0729292500241288,1791573158461123287
0.39980703592300415,0.4220154285430908,1.0177556471308356,1791573158491115161
-0.3510698676109314,0.40487581491470337,1.007239529689199,1791573158521164412
-0.10317093133926392,0.12632662057876587,0.980081643255611,1791573158552937864
0.22594964504241943,-0.3038226366043091,1.0673831856063984,1791573158583273757
-0.026513218879699707,-0.20339465141296387,1.100128324382782,1791573158611167358
0.16848140954971313,0.4161875247955322,0.9788076045637261,1791573158641214000
-0.6585913896560669,0.6024163365364075,0.981581102252674,1791573158671149671
0.6962983012199402,0.41355347633361816,0.9875981245682732,1791573158701240008
-0.45287221670150757,0.29817724227905273,1.013095885033719,1791573158731120688
0.36023175716400146,0.5803609490394592,1.0060549476455038,1791573158761061677
-0.47887885570526123,-0.014843285083770752,0.9205553467341869,1791573158792482834
0.3701512813568115,-0.608045220375061,1.038090029888222,1791573158820365920
-0.19361937046051025,0.16800564527511597,1.0585437816637357,1791573158849290005
-0.08215904235839844,0.6227660179138184,1.0056074082670778,1791573158880191366
-0.39316844940185547,0.4187365770339966,1.008017674942827,1791573158910229470
0.28022873401641846,0.5276614427566528,1.0289663542772816,1791573158940129061
-0.2530391812324524,-0.10062122344970703,1.0500814179173492,1791573158970349377
0.2229720950126648,-0.13712060451507568,1.0130450713672567,1791573159000938480
-0.3427249789237976,0.045097529888153076,0.9272307412433624,1791573159032499811
-0.09713029861450195,0.1679600477218628,1.0699337139517697,1791573159059955554
-0.19829362630844116,0.3721007704734802,0.9992970059121352,1791573159089980179
-0.08992797136306763,0.5443364381790161,1.0163010534893442,1791573159119891808
-0.012840032577514648,-0.022572755813598633,1.033660905080372,1791573159148788578
0.03432726860046387,-0.07743483781814575,0.9632137066791318,1791573159178838712
-0.22596514225006104,-0.20616191625595093,0.9628543777559796,1791573159209707735
0.0705113410949707,0.6045816540718079,0.9860404012135235,1791573159240833833
0.1563757061958313,0.40636301040649414,0.963155382344883,1791573159272485680
-0.7190216183662415,0.2862226963043213,1.0885073811560189,1791573159299599865
0.30065321922302246,0.4048140048980713,1.0045435169498111,1791573159329539707
0.08280938863754272,0.010416507720947266,1.0443200308956062,1791573159359488369
0.31921088695526123,-0.293160617351532,1.0258143553810006,1791573159389460138
-0.5341439247131348,0.04486262798309326,0.998639475674582,1791573159419365339
-0.22295814752578735,0.30680179595947266,1.018771771660855,1791573159449346544
0.03822439908981323,0.7434633374214172,0.9864499337727745,1791573159480632440
0.45397496223449707,0.4713497757911682,0.9593153223449522,1791573159513135069
-0.20642787218093872,-0.4974159002304077,1.2414692105223315,1791573159538289213
-0.14632737636566162,-0.34432393312454224,0.9596473476291938,1791573159569149364
0.14227604866027832,0.38333040475845337,0.9745827161193341,1791573159599094064
0.06805461645126343,0.5405845642089844,1.0251792022295931,1791573159629058584
-0.2924867272377014,0.3728727102279663,1.0089412823334096,1791573159658994540
-0.38541358709335327,0.23131901025772095,0.9982846005597744,1791573159688926392
-0.08431071043014526,0.11764425039291382,0.9566536915603508,1791573159720641693
-0.03435659408569336,0.052469849586486816,0.9798124929939971,1791573159751685018
0.26714515686035156,-0.1978023648262024,1.1032460245209954,1791573159778859590
-0.24868088960647583,-0.05233496427536011,1.0297162946948406,1791573159808744610
-0.615871012210846,0.8913892507553101,1.0164439333346658,1791573159838740563
-0.04425007104873657,0.3070914149284363,0.9979009666496061,1791573159868667584
0.2416871190071106,0.03991752862930298,1.0041468249262544,1791573159898640302
-0.03367704153060913,-0.36156827211380005,1.0218934019004973,1791573159928752965
0.1992650032043457,0.05695575475692749,0.9282190757752862,1791573159961153760
-0.19188004732131958,0.42646247148513794,1.0032623771398674,1791573159990572669
0.454082727432251,0.6100725531578064,1.090727675425128,1791573160018414759
-0.11039501428604126,0.504492461681366,1.0265513732458016,1791573160048447401
0.02319103479385376,0.33742713928222656,1.001692782724907,1791573160078609630
0.15837740898132324,0.36734211444854736,1.019230365405253,1791573160108442037
-0.16149014234542847,0.10688626766204834,1.0359727093158453,1791573160138243262
-0.48040658235549927,-0.05606865882873535,1.0133901988760294,1791573160168739166
-0.027341604232788086,-0.31102895736694336,0.9609433886448693,1791573160200540474
0.1713353395462036,0.19129246473312378,1.0845909766391106,1791573160228143961
-0.0721668004989624,0.855945885181427,0.9896224182510758,1791573160258070327
0.09135788679122925,0.4816768169403076,1.0219485682700031,1791573160287998940
-0.43167293071746826,-0.1410374641418457,1.0264623715880112,1791573160317947133
0.6653589606285095,-0.4367494583129883,0.9974921067076664,1791573160347912793
0.10475444793701172,-0.21196192502975464,0.9920369394597243,1791573160377033529
0.31193870306015015,0.7432066798210144,0.9318685145814674,1791573160409387753
-0.4603680968284607,0.5516213774681091,0.9673486540723703,1791573160440703580
-0.03803682327270508,0.14992129802703857,1.116866939486858,1791573160467808214
0.019770264625549316,0.07945549488067627,1.0222039319967313,1791573160497917542
0.03106999397277832,0.07794445753097534,1.0426038323317888,1791573160527604779
0.11987751722335815,0.1389511227607727,1.0066914446595447,1791573160557628217
-0.6162078976631165,-0.09684407711029053,1.0140350029020917,1791573160587513606
0.5798541903495789,0.03828674554824829,1.0258550665442656,1791573160617495176
-0.039863407611846924,0.638708233833313,0.9486481338128426,1791573160649054677
-0.28889530897140503,0.23183155059814453,0.9173124218397299,1791573160680875781
-0.6949132084846497,-0.08413159847259521,1.1370904584350996,1791573160707671425
-0.006699621677398682,-0.4566984176635742,1.0420839921996983,1791573160737364259
0.3261415958404541,0.03128862380981445,1.0317600721245164,1791573160767220141
0.3013838529586792,0.623153030872345,0.9950011895073299,1791573160797425543
-0.35411155223846436,0.6395295262336731,1.0273430860407464,1791573160827175942
-0.35212773084640503,-0.016429901123046875,1.0179767198532317,1791573160857441403
0.25520408153533936,0.17683196067810059,0.9843930924102237,1791573160888850218
-0.2537077069282532,-0.22602611780166626,0.980572339912053,1791573160919918266
-0.15582400560379028,-0.5011336207389832,1.0904503444626625,1791573160956909070
0.059838950634002686,-0.19832688570022583,1.0097083684834778,1791573160987222591
0.487417995929718,0.2677042484283447,1.0171532048883658,1791573161016869421
-0.21623820066452026,0.3417229652404785,0.8901419901780341,1791573161049267905
-0.3144128918647766,0.5446779131889343,0.9851610948352105,1791573161078757962
-0.14856970310211182,0.789849579334259,1.062599562090886,1791573161116643910
0.4320504069328308,0.31968265771865845,0.9976068780667698,1791573161146648127
-0.5510562658309937,-0.07633692026138306,1.0042819777158483,1791573161176998322
0.2471296191215515,0.06676840782165527,0.9820820856391596,1791573161208862319
-0.09881961345672607,-0.025853991508483887,1.1454542106450856,1791573161236542147
0.47094273567199707,0.027551233768463135,1.0310546184671072,1791573161266480085
-0.24408239126205444,0.1415049433708191,1.0093709515251896,1791573161296415014
0.2546411156654358,0.4542633295059204,0.9959733064043066,1791573161326384059
-0.1898941993713379,0.5336345434188843,0.9880193333462414,1791573161356341294
0.5300523042678833,0.10042887926101685,1.0214840832859984,1791573161385301574
-0.22165244817733765,-0.5845810770988464,0.955434006536136,1791573161416780841
0.16557860374450684,-0.16393911838531494,0.9227868872046746,1791573161449230700
0.26748573780059814,0.18756216764450073,1.0762189718189565,1791573161476432500
-0.13496696949005127,0.0556715726852417,0.9866136442425424,1791573161506152603
-0.06437259912490845,0.2444162368774414,0.9876594749100363,1791573161536080583
-0.09445947408676147,0.3571074604988098,1.0058491382752761,1791573161566063892
-0.14188623428344727,0.7571695446968079,1.0465194398592936,1791573161595944953
0.018224358558654785,-0.14192187786102295,1.057933149483352,1791573161625953566
0.13985669612884521,-0.6458174586296082,1.0406610758925363,1791573161656574056
0.25624728202819824,-0.08298468589782715,0.949595770015608,1791573161689448530
0.54140305519104,0.41723203659057617,1.1203108122510341,1791573161715811882
-0.27681881189346313,0.4521682858467102,0.9652583870667432,1791573161745767340
-0.04310959577560425,0.5015453696250916,0.9743594399303449,1791573161775621086
-0.3395001292228699,-0.4432281255722046,0.9878589944732298,1791573161805713589
0.45564669370651245,-0.027210116386413574,1.0027483669692756,1791573161835559092
-0.22133123874664307,0.19675683975219727,0.9942623450887097,1791573161865526081
0.2863486409187317,0.17857003211975098,0.9365445568035523,1791573161897691597
-0.09456360340118408,0.24987000226974487,1.0121551959515986,1791573161928691904
0.0118522047996521,0.5266430974006653,1.1599572100655555,1791573161955385419
0.40159326791763306,0.043566346168518066,0.9867610895620978,1791573161985341698
-0.3987616300582886,-0.11838728189468384,0.9974953807694381,1791573162015281302
-0.2433415651321411,-0.28429412841796875,1.0037932165077696,1791573162045412938
-0.4163224697113037,0.21537888050079346,1.0377500369710084,1791573162075187776
0.12878865003585815,0.3217851519584656,1.0110399285523834,1791573162105213318
-0.3716851472854614,0.6853722929954529,0.9607828204628363,1791573162137059732
0.35731732845306396,0.3447374105453491,1.0497826339146252,1791573162167042832
-0.031620919704437256,-0.25423264503479004,1.1288572272823256,1791573162195002926
0.2815195918083191,-0.4808562994003296,1.036794376683541,1791573162223928850
0.014428138732910156,0.1275354027748108,0.9494690564873978,1791573162254946416
-0.49995332956314087,0.3462980389595032,1.0037860947885413,1791573162284851240
-0.17153435945510864,0.6633795499801636,1.013294657358986,1791573162314846893
0.23239350318908691,0.28200411796569824,1.0381145013261228,1791573162344815186
0.22153669595718384,-0.494127094745636,0.9566617477835402,1791573162376649117
0.10808664560317993,-0.08609139919281006,1.0769948132637872,1791573162404777024
-0.14412575960159302,0.11405438184738159,1.018392797764804,1791573162434639340
-0.14716124534606934,0.20225828886032104,1.0296490541793946,1791573162464565862
-0.06085646152496338,0.436707079410553,1.0100066993323096,1791573162494534294
-0.1454600691795349,0.30500686168670654,1.011962237919211,1791573162524496212
-0.2149946689605713,0.033648133277893066,1.0238151800521726,1791573162554423509
0.10672086477279663,-0.14222359657287598,1.0164470620385633,1791573162584315298
0.0260007381439209,-0.3076786398887634,0.9255780924407594,1791573162616661774
0.18124175071716309,0.210890531539917,1.0773470633840934,1791573162644361863
0.4968717694282532,0.44645440578460693,0.9949016717541261,1791573162684257693
-0.00629734992980957,0.3634417653083801,0.9946189824275021,1791573162714390675
0.5240514874458313,0.1111026406288147,0.9732512086836269,1791573162744917727
-0.15127962827682495,0.27025026082992554,0.9185548106935668,1791573162777096436
-0.010730624198913574,0.24911236763000488,1.112020034450852,1791573162804176760
-0.5678028464317322,-0.25588589906692505,1.0226549233968485,1791573162834065970
0.003938913345336914,-0.34126758575439453,1.0218531902811856,1791573162864250811
-0.474800705909729,-0.14710360765457153,1.0459988790998034,1791573162894044803
-0.06148254871368408,0.12819987535476685,1.005253142451845,1791573162923958546
0.13819283246994019,0.384010374546051,1.0001046485806468,1791573162953809906
-0.2756737470626831,0.3187488317489624,0.9964118130141236,1791573162984915657
0.25339275598526,0.34144335985183716,0.9979457927022504,1791573163016669427
-0.02030932903289795,-0.37262511253356934,1.1087300216813125,1791573163043710655
0.45885539054870605,-0.2744905352592468,0.9675707084473644,1791573163073637504
-0.49191755056381226,0.6215688586235046,0.836960383989688,1791573163097720240
0.3710551857948303,0.3783078193664551,1.1352504155212322,1791573163133535747
-0.5992273688316345,0.3162916898727417,1.0077755859876687,1791573163163521094
0.25004756450653076,0.6032367944717407,0.9900519615519506,1791573163193567780
-0.28311407566070557,-0.17786628007888794,0.9356055759566461,1791573163225465840
0.4060772657394409,-0.2617088556289673,0.9698904561505333,1791573163256660485
-0.5037091374397278,-0.07595986127853394,1.1464143447589261,1791573163283489148
-0.24653536081314087,0.2738993763923645,1.027967570792704,1791573163313243366
0.27890855073928833,0.5591137409210205,1.0055421368295228,1791573163343244678
-0.54632568359375,0.5568042993545532,1.007051183220754,1791573163373178302
0.11412161588668823,-0.14748096466064453,0.9849431633511347,1791573163403416687
-0.6367135047912598,-0.37198275327682495,1.027888897784768,1791573163433136672
0.3793291449546814,-0.0525478720664978,0.9885541483868299,1791573163463693741
-0.20949304103851318,0.5713845491409302,0.9502954141039535,1791573163495484345
0.552886962890625,0.3050053119659424,1.1177696637731371,1791573163522956627
-0.5154088735580444,0.32503968477249146,1.0421257969837308,1791573163552876411
0.39860260486602783,0.15333867073059082,1.0102750649118049,1791573163582841156
0.04882323741912842,0.20152586698532104,0.9882221607835749,1791573163612796898
-0.29812800884246826,-0.39723217487335205,1.0032908997847394,1791573163642759719
-0.3484812378883362,-0.2126796841621399,0.98859308126814,1791573163673139365
-0.16090089082717896,0.5741592645645142,0.9604007054330006,1791573163704677262
0.2858632206916809,0.7151390910148621,1.0925334147429788,1791573163732662207
0.23834598064422607,0.30544155836105347,1.0148576699124656,1791573163762538903
-0.16910600662231445,-0.4573860764503479,1.0093888477031865,1791573163792504513
-0.15842556953430176,-0.24218136072158813,1.0203572837862438,1791573163822495133
-0.3815087676048279,0.2383357286453247,1.0079444117867764,1791573163852387999
-0.006919682025909424,0.5125715136528015,1.0118796714660105,1791573163882404257
-0.15438222885131836,0.635161280632019,1.0361922269865973,1791573163912722020
-0.0704566240310669,0.16392862796783447,1.0001489491074638,1791573163944706104
0.07808047533035278,-0.09388172626495361,1.1375942479015535,1791573163971292125
0.020198523998260498,-0.034404098987579346,0.937662360929454,1791573164002242310
0.2297898530960083,-0.11318957805633545,1.0183213724292604,1791573164032099993
-0.6555164456367493,0.1603386402130127,1.0443096303890815,1791573164062116142
-0.6054332256317139,0.606956958770752,1.0604368364005667,1791573164091047746
-0.19759154319763184,0.20925533771514893,0.9256160771755513,1791573164121993325
0.07113873958587646,0.1145753264427185,0.9367488831668461,1791573164153023517
0.08990281820297241,-0.11001747846603394,0.9368175986912037,1791573164185157310
-0.06023085117340088,0.059253811836242676,1.147430507364531,1791573164211947568
-0.19584929943084717,0.0896153450012207,1.01077412837002,1791573164241888212
0.09166902303695679,-0.0995403528213501,0.9885126495797044,1791573164271929294
-0.39655202627182007,0.4303491711616516,1.0454665523922824,1791573164301839707
0.089152991771698,0.4699609875679016,1.0651481485912022,1791573164331740653
0.20761239528656006,0.28611332178115845,1.0118995733889864,1791573164361814431
-0.46905285120010376,0.059018850326538086,0.9567159355238896,1791573164392736483
-0.5347686409950256,0.14328575134277344,0.9394526883764539,1791573164425019704
-0.6024854183197021,-0.19483017921447754,1.1338873482037177,1791573164451736285
0.19422870874404907,0.09090012311935425,0.9940897864982841,1791573164481594994
0.03781634569168091,0.5476747751235962,0.9902568794057864,1791573164511590556
0.2258765697479248,0.5798358917236328,1.0002548162308855,1791573164541509074
-0.5966498255729675,-0.006725311279296875,0.9965905956244681,1791573164571476510
-0.008893489837646484,-0.1609753966331482,0.9985164943085574,1791573164601516848
0.29618722200393677,-0.2722616195678711,0.9564709295783028,1791573164633417603
-0.2774091362953186,0.47069060802459717,0.9920774131655132,1791573164663894581
-0.16538798809051514,0.47549909353256226,1.100117821065539,1791573164691496918
-0.1357734203338623,0.32436108589172363,1.0601487583596045,1791573164721365411
0.17437535524368286,0.20400482416152954,1.0405817309557945,1791573164751388726
0.12301492691040039,0.07243406772613525,1.0221650929388766,1791573164781361206
0.3143530488014221,0.1473495364189148,1.0017750270973211,1791573164811402974
-0.3048522472381592,0.09798771142959595,1.0207666341312467,1791573164841466741
-0.10208076238632202,-0.03161841630935669,0.9709612544871681,1791573164872826032
0.09211885929107666,0.478985071182251,1.003031615275984,1791573164902825527
-0.298370897769928,0.31899237632751465,1.0205696824490313,1791573164931330619
-0.23227685689926147,-0.02818620204925537,1.0132240345441528,1791573164960294303
-0.01581805944442749,-0.10988211631774902,0.9749353980037833,1791573164991329382
0.13569951057434082,0.15799158811569214,1.068984946485418,1791573165020546266
0.3682582378387451,0.2846107482910156,0.9907156319599711,1791573165050872529
-0.3374786972999573,0.6965836882591248,0.9785508217270934,1791573165081222309
-0.5281197428703308,0.23098540306091309,0.9441794396571735,1791573165113471240
-0.3757879137992859,0.19101184606552124,1.1340578966000139,1791573165140473024
0.11113637685775757,-0.18350917100906372,1.0215001916699158,1791573165170378894
-0.29748350381851196,-0.2069651484489441,1.0697810278012645,1791573165199302191
0.0035614967346191406,0.1401105523109436,1.038442694324419,1791573165229313471
-0.19769978523254395,0.5133172273635864,0.9814288540500631,1791573165260261568
0.3044038414955139,0.4453275799751282,1.0142919368518928,1791573165290186628
0.033408284187316895,0.15138542652130127,0.9736764698920641,1791573165321103254
-0.39966315031051636,-0.26022791862487793,0.9231024625290426,1791573165352811976
0.043443143367767334,0.07090860605239868,1.0945269941122158,1791573165380023332
0.293753445148468,0.31956690549850464,1.0356157802298867,1791573165409972956
0.20076638460159302,0.3541147708892822,1.0047814632167595,1791573165439916406
0.06834709644317627,0.35234224796295166,1.0025617560263,1791573165469858980
-0.580274760723114,0.3790522813796997,1.0151206866132454,1791573165499952413
0.07666873931884766,-0.044351398944854736,1.005531779306372,1791573165529812885
-0.21858572959899902,-0.25755465030670166,0.9583969264633941,1791573165561181337
0.375659704208374,-0.037373483180999756,0.9816649228480556,1791573165593274670
-0.4403807520866394,0.7048668265342712,1.1816288636960688,1791573165619729263
0.06325405836105347,0.17588365077972412,0.9934605736816425,1791573165649881525
0.032306790351867676,0.2901875376701355,1.012491643479264,1791573165679608588
-0.14427679777145386,0.5250348448753357,1.0109350573875941,1791573165709527349
0.15481412410736084,0.32315289974212646,0.9564884361922991,1791573165739438600
-0.051867008209228516,-0.2681748867034912,0.9505340779295102,1791573165769489606
0.5816945433616638,-0.13878977298736572,0.9273119650916413,1791573165800872729
-0.05654299259185791,0.07481151819229126,0.9403909922181173,1791573165832621479
0.04084169864654541,0.3662668466567993,1.1681344095520438,1791573165858303319
-0.39764195680618286,0.7243979573249817,0.973420425101965,1791573165889228546
0.20828664302825928,0.14223003387451172,1.0002978156475442,1791573165919156997
-0.28651779890060425,-0.114035964012146,1.0768393735701642,1791573165948133088
0.037134647369384766,0.028937995433807373,1.0182484575460657,1791573165979082704
-0.15191733837127686,0.15177112817764282,1.0264730532682036,1791573166009128732
0.41486239433288574,0.25191330909729004,0.9021835350109858,1791573166041719033
-0.14300638437271118,0.5637603402137756,1.0469916266506598,1791573166070973486
-0.32075703144073486,0.2246496081352234,1.1177154441438644,1791573166098850486
-0.2416231632232666,-0.0921444296836853,0.9770662092719234,1791573166128845913
-0.0770035982131958,-0.11997038125991821,0.9634137093593557,1791573166158819045
-0.14255833625793457,-0.14194422960281372,1.0147763879519074,1791573166188730208
0.19627255201339722,0.46534019708633423,1.0193784887289667,1791573166218681138
0.1048627495765686,0.3760247230529785,0.9873518620939624,1791573166249067623
-0.2001672387123108,0.26344525814056396,0.9457566291840372,1791573166280874356
0.0263521671295166,0.18688690662384033,1.0926823686038631,1791573166308793360
0.3064555525779724,0.058912813663482666,1.0294440200864248,1791573166338843276
-0.3658658266067505,-0.26930487155914307,1.0460671298566848,1791573166368470690
-0.005648136138916016,-0.03514498472213745,0.996003967339154,1791573166398421022
0.16765707731246948,0.6725416779518127,0.9621948246960781,1791573166428737812
0.08109986782073975,0.4016329050064087,1.030194325307672,1791573166457322447
-0.11031913757324219,-0.10072177648544312,0.9335024867186826,1791573166489353118
-0.21304982900619507,-0.2524956464767456,0.9418731851906574,1791573166520874047
-0.23874473571777344,0.1954858899116516,1.1218390075254936,1791573166548195443
0.05968773365020752,0.046308815479278564,1.065541602577946,1791573166578100773
0.260270357131958,0.5341457724571228,1.0451301209965145,1791573166608122486
0.26402419805526733,0.4839252233505249,1.028990165865749,1791573166638008122
0.4754771590232849,0.22258210182189941,1.0182820957298253,1791573166667991487
-0.45344001054763794,-0.0033408403396606445,1.0001370687730873,1791573166698038192
-0.010753393173217773,-0.1436721682548523,0.9713371949363501,1791573166729016814
0.07363581657409668,-0.129241943359375,0.9509088134437879,1791573166761081670
-0.41610682010650635,0.49833178520202637,1.1262069287114689,1791573166787876342
0.2688862085342407,0.4548580050468445,0.9738133108926654,1791573166817703880
-0.17783516645431519,0.13507193326950073,0.9977654755522458,1791573166847703955
0.6143039464950562,0.09440422058105469,1.0292872033842657,1791573166877657243
-0.536178469657898,-0.289067804813385,1.0175962373479384,1791573166907654758
0.2554519772529602,0.10370409488677979,0.9875256938687617,1791573166937585970
-0.3868834972381592,0.3994048833847046,0.9855605224723267,1791573166969013458
0.8657771944999695,0.3730565905570984,1.0107528432010289,1791573167000551266
-0.17434698343276978,0.3284860849380493,1.1629930490987919,1791573167027571336
0.34604406356811523,0.45974159240722656,0.9939332982275924,1791573167057515889
-0.15686076879501343,0.3899502158164978,0.9847586154411846,1791573167087496258
-0.44941967725753784,-0.16802024841308594,1.0446287593439465,1791573167117258363
-0.015104591846466064,-0.18093687295913696,1.0873265362003428,1791573167146314185
-0.24984294176101685,-0.19997763633728027,0.9549976733380047,1791573167177180309
0.6390337347984314,0.41006970405578613,0.9259291370478119,1791573167208030435
-0.37170636653900146,0.5685924291610718,1.0360805120761194,1791573167237185335
0.47248584032058716,0.5289856791496277,1.0390781528318744,1791573167267032916
-0.20874589681625366,-0.19711214303970337,0.9912406606740352,1791573167297021808
-0.15094715356826782,0.16053229570388794,0.867770131348888,1791573167318956916
-0.26658523082733154,0.10340261459350586,1.0486923494901,1791573167356880417
-0.17086082696914673,0.46179020404815674,1.0511886381244722,1791573167386907765
-0.3348982334136963,0.4276242256164551,1.0285917614013205,1791573167417189368
0.4516698718070984,0.30405426025390625,0.9555293736886793,1791573167449736644
-0.04884153604507446,0.02380436658859253,1.1358221771504715,1791573167476793562
0.5101035833358765,-0.04341977834701538,1.022659731906386,1791573167506730825
-0.07509016990661621,0.01966160535812378,1.0226340697657537,1791573167536593968
0.03544032573699951,-0.1301446557044983,0.9954611808197725,1791573167566637063
-0.08635962009429932,0.39123833179473877,0.9855517097425572,1791573167596574246
-0.18125134706497192,0.6713802814483643,0.9991208999142482,1791573167626505811
-0.0432623028755188,-0.0021407008171081543,0.9654927090344227,1791573167657150346
-0.01720958948135376,-0.2927597761154175,0.9218558445955933,1791573167689413374
0.1546000838279724,-0.42203396558761597,1.1150712577779416,1791573167716419981
-0.011292338371276855,0.6551094055175781,1.005678499529962,1791573167746346120
0.23934578895568848,0.46073198318481445,1.0065326435800848,1791573167776250141
-0.5034083724021912,0.3854520320892334,1.0084857193296675,1791573167806225919
0.05784618854522705,-0.010646045207977295,1.0169695518459556,1791573167836155453
-0.09563940763473511,0.06367552280426025,1.0256719220157882,1791573167866161107
0.2079668641090393,-0.1365451216697693,0.9976021748905861,1791573167897334803
-0.19459980726242065,0.06491851806640625,0.9715657840460113,1791573167929099627
0.04935187101364136,-0.03299665451049805,1.1449178748524298,1791573167955991988
0.09412622451782227,0.4833507537841797,1.0137142614712555,1791573167985943439
0.19909268617630005,0.590356171131134,0.9926205255209714,1791573168015901335
-0.30222398042678833,-0.330471396446228,0.9876320898345616,1791573168045924615
-0.2537974715232849,-0.3742111325263977,0.9951894796842877,1791573168075747251
0.19520914554595947,0.1479637622833252,0.9939133545540828,1791573168105787498
0.19429051876068115,0.48431652784347534,0.9572065609742726,1791573168137603493
-0.15736526250839233,0.4618246555328369,0.9754421691771865,1791573168168652684
-0.5181041955947876,0.36131739616394043,1.1449722232275616,1791573168195622457
-0.16649818420410156,-0.13261723518371582,1.0361027795377244,1791573168225629633
0.08185470104217529,-0.24296140670776367,1.0220822885290408,1791573168255524166
0.2970057725906372,0.04489487409591675,1.0046876252732335,1791573168285512948
-0.2098679542541504,-0.002927243709564209,1.029982536574992,1791573168315430522
-0.7150051593780518,0.5353197455406189,0.9908228451083285,1791573168345638435
0.04443389177322388,0.14396041631698608,0.9580934072820786,1791573168376936684
0.11770159006118774,0.23934727907180786,0.9814769188291569,1791573168407385249
-0.273828387260437,0.5033330321311951,1.0766635372205813,1791573168435423563
0.3704144358634949,-0.006843626499176025,1.032699214480991,1791573168465405427
0.008282303810119629,-0.48128074407577515,1.0287758423738902,1791573168495166727
-0.024445652961730957,-0.1807180643081665,0.9972980919240296,1791573168525116471
-0.29294419288635254,0.5213197469711304,1.0158731109712529,1791573168555055851
-0.12420547008514404,0.3264111280441284,1.0120600234299388,1791573168585256595
-0.004838347434997559,0.05891156196594238,0.9596096069612773,1791573168616931634
0.08422499895095825,-0.013005733489990234,1.102289091525833,1791573168645019031
-0.3816101551055908,0.4495967626571655,1.0242619860863478,1791573168674836944
0.31885236501693726,0.32878512144088745,0.8795593317244611,1791573168697486276
-0.37015360593795776,0.611541211605072,1.086662295777086,1791573168724826668
-0.08550631999969482,-0.2232946753501892,0.9870898414030119,1791573168754738451
0.4337112307548523,-0.14959943294525146,1.0350851159379673,1791573168784682467
-0.5284637808799744,0.3305780291557312,1.0387513425327803,1791573168814644688
-0.46600550413131714,-0.23583215475082397,1.0022941403546068,1791573168844651759
-0.1636512279510498,0.2699715495109558,0.9797319768582146,1791573168874543485
-0.02252727746963501,0.6098523139953613,1.006644450319297,1791573168905053790
-0.09224098920822144,0.0778546929359436,0.9333472460205403,1791573168936993909
0.08693462610244751,0.14298784732818604,1.0544742451602283,1791573168964483577
-0.21107101440429688,-0.12233060598373413,1.0416241410382032,1791573168993323247
-0.3896779417991638,-0.494060218334198,0.9914757623164334,1791573169024335760
0.19521230459213257,0.38355541229248047,1.0097779742040696,1791573169054284724
-0.346682071685791,0.5895361304283142,0.9925973178366548,1791573169084199888
-0.2772705554962158,0.2724142074584961,0.9940061975666916,1791573169114201302
0.22743231058120728,-0.005309641361236572,1.016761498240982,1791573169144328746
0.3803486227989197,-0.11268037557601929,0.9086566481847338,1791573169177446275
0.06642508506774902,-0.1362953782081604,1.1121475425788463,1791573169204138080
-0.34571146965026855,0.06298202276229858,0.9953449966051542,1791573169233980457
-0.2947448492050171,0.4962612986564636,1.0458986746432972,1791573169263928374
-0.24176979064941406,0.3428722023963928,1.068596996652687,1791573169293912813
0.18488168716430664,-0.16022616624832153,1.047640938774406,1791573169323872229
-0.20978224277496338,-0.1784624457359314,0.9834898072025047,1791573169354195287
-0.1776583194732666,0.15062648057937622,0.9732614229374961,1791573169385276400
-0.052025020122528076,-0.03402656316757202,0.9731869341309388,1791573169417016221
0.30694878101348877,0.5168709754943848,1.1411965453508501,1791573169443710269
0.2314777374267578,0.4696289300918579,1.0017903436369195,1791573169473632693
-0.7847214937210083,0.32619380950927734,0.9827442411891777,1791573169503572711
-0.11007410287857056,-0.3183472752571106,0.9754641891299782,1791573169533513932
-0.21571838855743408,-0.37391024827957153,0.9822570123615888,1791573169563523018
0.4255176782608032,0.05032145977020264,0.9837763917192942,1791573169593567393
-0.4693186283111572,0.749576210975647,0.9246473381644547,1791573169625715649
0.1144629716873169,0.47008246183395386,1.0454189011344834,1791573169655154528
0.03986310958862305,0.4539400339126587,1.1216761409658798,1791573169693259605
0.27369028329849243,0.27435022592544556,1.0543644726864743,1791573169723250598
-0.5684146881103516,0.31237733364105225,0.9977685357954501,1791573169753542455
0.294177770614624,0.06628012657165527,0.9407090353197725,1791573169785062595
-0.09329217672348022,0.06994253396987915,1.0263140774036776,1791573169815194644
0.03356146812438965,-0.32305943965911865,1.1018710828468181,1791573169843141539
0.4196058511734009,0.08052694797515869,0.9979284706826888,1791573169872991994
-0.10121810436248779,0.11652922630310059,0.9819681336720273,1791573169902945844
0.1774551272392273,0.44298237562179565,1.0010932841703746,1791573169932887914
-0.5058377981185913,0.6417451500892639,1.0168049441375209,1791573169962932236
0.1404653787612915,0.14432674646377563,1.000622292380353,1791573169993099120
-0.3411957025527954,-0.4047921895980835,0.9146744478655361,1791573170025105202
0.4531218409538269,-0.11623895168304443,1.0699953692855497,1791573170052772776
-0.46070778369903564,0.06093066930770874,1.0572108576426995,1791573170082678241
-0.09039384126663208,0.38726335763931274,1.0253141753436716,1791573170112628080
0.12912529706954956,0.8155336976051331,1.0045564029750873,1791573170142613446
-0.3669765591621399,0.28016597032546997,1.0612967499112669,1791573170172510570
-0.06491279602050781,0.10738080739974976,1.0836157461084108,1791573170202519881
-0.5405899286270142,-0.28624916076660156,0.9947506064327575,1791573170233117530
0.1518571972846985,-0.3502351641654968,0.8966337323419293,1791573170265762214
-0.08197516202926636,0.5665109157562256,1.0911021175644895,1791573170292402604
-0.20221543312072754,0.7310168147087097,1.0233383208931717,1791573170321327033
-0.20982760190963745,0.1513405442237854,0.9790319925689279,1791573170352225476
-0.18676960468292236,0.007861554622650146,1.0099523818412441,1791573170382263646
0.20255297422409058,-0.26047074794769287,0.9914899504672636,1791573170412142836
-0.34143340587615967,-0.1601514220237732,1.010111338617863,1791573170442145416
-0.2533887028694153,0.7366169095039368,1.0025499547800252,1791573170473144078
0.05083668231964111,0.13830512762069702,0.9763686912836236,1791573170505101699
0.027676045894622803,0.11538970470428467,1.132123685145456,1791573170532093699
0.3036501407623291,0.3690553307533264,1.0268154653554227,1791573170562022598
0.03454029560089111,0.44686007499694824,0.8822567898854172,1791573170585444877
-0.2413744330406189,-0.2594491243362427,1.1075200341105331,1791573170622015281
-0.08103209733963013,-0.1911836862564087,0.9972052277657458,1791573170651996299
