acc_x, acc_y, angular_z, stamp, 
0.02089899778366089,-0.003135085105895996,1.6622022529135058e-10,1791573114280186538
0.024428129196166992,-0.0012909173965454102,9.396348269290477e-11,1791573114310334459
-0.007950127124786377,-0.00843876600265503,8.80760516821531e-11,1791573114342431160
-0.02942866086959839,0.0023077726364135742,9.21858144175099e-11,1791573114370068894
0.017388880252838135,0.030967772006988525,9.909701591267945e-07,1791573114400145611
-0.014922738075256348,-0.01760154962539673,1.4982640966995036e-10,1791573114429995258
-0.0024298429489135742,-0.006807088851928711,8.921743341435292e-11,1791573114459912489
-0.0007467269897460938,-0.004960775375366211,6.648598430719904e-11,1791573114490110232
0.02069753408432007,-0.004925191402435303,7.110218923123109e-11,1791573114519313677
0.011415958404541016,-0.013856649398803711,4.0510084766985633e-11,1791573114551141603
0.002183973789215088,0.004200100898742676,1.3670267524927129e-11,1791573114582258909
-0.014081716537475586,0.013297736644744873,7.455897310719331e-12,1791573114609786263
-0.010316789150238037,-0.00994861125946045,-4.528961562075271e-12,1791573114639635917
-0.008470356464385986,0.008150458335876465,-1.3861281902531277e-11,1791573114662457144
0.007677555084228516,-0.004254639148712158,-5.266644537377581e-11,1791573114699558292
0.01826345920562744,0.003059685230255127,-3.1344010630531346e-11,1791573114729483386
0.02875053882598877,-0.014804184436798096,5.620498578549407e-12,1791573114759497567
-0.012850582599639893,0.005042910575866699,6.88066121208525e-11,1791573114789313413
-0.0022925138473510742,-0.0020540952682495117,7.442365115052095e-11,1791573114822997817
0.004601478576660156,-0.007306456565856934,1.299519536465259e-10,1791573114849481023
-0.022568047046661377,-0.010909795761108398,1.9209903247976553e-10,1791573114879286795
0.029343128204345703,-1.7762184143066406e-05,2.527814177596079e-10,1791573114909202276
0.004220783710479736,0.030476391315460205,2.5855693909542796e-10,1791573114939226464
0.011257767677307129,-0.003643929958343506,2.361796238591154e-10,1791573114969180178
-0.01749575138092041,-0.0071610212326049805,1.6873181264137386e-10,1791573114999249204
-0.0068441033363342285,-0.003405451774597168,2.521155081016057e-10,1791573115030283834
-0.017578065395355225,0.023546576499938965,2.773460763164436e-10,1791573115062731825
-0.005003631114959717,0.00906383991241455,2.816518230777281e-10,1791573115089245539
-0.006517291069030762,0.0033577680587768555,1.3377677769345368e-10,1791573115119162307
-0.011712431907653809,-0.023757755756378174,4.171993196513173e-11,1791573115149092973
0.004792988300323486,-0.020184814929962158,1.6260239435642004e-11,1791573115179076736
0.010420680046081543,-0.0074424147605896,-1.328441437290199e-13,1791573115208976755
-0.018125474452972412,-0.01075822114944458,-2.4873987818360103e-11,1791573115239121646
0.021579086780548096,0.005588412284851074,-6.679548158223576e-11,1791573115270640597
-0.0017837882041931152,-0.0015600919723510742,-7.609191943032348e-11,1791573115302198226
0.007201433181762695,-0.026608526706695557,-1.1206596035680852e-10,1791573115339082641
0.0071683526039123535,0.029267549514770508,9.96321565070743e-07,1791573115368992785
0.016067564487457275,0.0023047327995300293,-7.075864448637708e-11,1791573115398349681
-0.02363598346710205,-0.012076139450073242,-2.7403269977384146e-11,1791573115430338600
-0.025413572788238525,-0.008521556854248047,-2.3971051888390005e-11,1791573115461744019
-0.01632171869277954,0.016583800315856934,-1.2085968191324873e-11,1791573115489029228
0.0053781867027282715,0.005734086036682129,-3.040773912636622e-11,1791573115518890531
0.009085237979888916,-0.0034482479095458984,-4.132415618126618e-11,1791573115548919504
-0.017871975898742676,-0.01611548662185669,-3.093543534494331e-11,1791573115578863569
-0.02671205997467041,-0.0017222166061401367,-3.512442249891942e-11,1791573115608115093
-0.00856095552444458,-0.003449082374572754,-5.6930519731154495e-11,1791573115638809439
-0.01894170045852661,0.0037432312965393066,-7.98930434114413e-11,1791573115670896877
-0.018737494945526123,-0.006992042064666748,-1.445568473122592e-10,1791573115698865295
0.010221302509307861,-0.015902996063232422,-1.2666460783571312e-10,1791573115728175536
-0.02736222743988037,-0.02110576629638672,-2.303839085215128e-10,1791573115757922399
0.028491556644439697,0.018532872200012207,-2.9188671533634064e-10,1791573115787824735
0.006875574588775635,0.011423885822296143,-2.747526565811159e-10,1791573115817838321
0.01397615671157837,-0.011820793151855469,-2.592631279248387e-10,1791573115847806087
-0.00943291187286377,0.00638192892074585,-2.8087286622346855e-10,1791573115878365106
0.0013107657432556152,0.002921760082244873,-3.11528882376318e-10,1791573115909480565
0.02993476390838623,0.017319560050964355,1.0580670914358186e-06,1791573115937638723
0.015288710594177246,-0.022245585918426514,9.964976441938946e-07,1791573115967539703
0.002436399459838867,0.01380932331085205,-1.2202475290924503e-10,1791573115997719112
-0.028135597705841064,0.017362654209136963,-9.156351428050982e-11,1791573116027483234
-0.017487764358520508,-0.0024469494819641113,-3.76220251081278e-11,1791573116057451407
0.01314479112625122,-0.013281285762786865,-5.135230289586287e-11,1791573116087399653
-0.01387101411819458,-0.01688206195831299,-4.4360109702052304e-11,1791573116118339099
-0.004975259304046631,0.010197222232818604,-2.7872333390331583e-11,1791573116150739336
-0.012269198894500732,0.002974867820739746,3.958778607955404e-12,1791573116177274128
0.010969936847686768,0.0026994943618774414,8.171005793691048e-12,1791573116207179570
0.002074122428894043,-0.002983987331390381,1.6720786647090048e-11,1791573116237140577
0.005618274211883545,0.009404957294464111,3.646402037688472e-12,1791573116267065543
-0.012138664722442627,0.014521181583404541,-4.796216454156823e-14,1791573116297061865
0.00938194990158081,-0.010957956314086914,1.8217254192082015e-11,1791573116327087847
-0.003339111804962158,-0.0021764636039733887,-9.520610126041744e-07,1791573116358390917
0.0038326382637023926,-0.01485520601272583,-2.0790986750995835e-12,1791573116389296663
-0.024791955947875977,-0.004161834716796875,5.0638677359133054e-12,1791573116416910016
0.030916273593902588,0.004842936992645264,2.7133453363363425e-11,1791573116446790519
-0.022986114025115967,-0.007701218128204346,2.3046455017797217e-11,1791573116476778020
0.00938194990158081,-0.011295497417449951,1.3869903662647969e-11,1791573116506701559
-0.010413706302642822,-0.020139336585998535,-1.1542109977459275e-11,1791573116535655756
0.02917271852493286,0.019487380981445312,4.196125406085802e-12,1791573116566687028
0.011193037033081055,0.012281537055969238,-3.6112633336603165e-12,1791573116598837493
0.0002085566520690918,-0.009440004825592041,-1.6694383743471857e-11,1791573116628521768
-0.02515733242034912,-0.013102173805236816,-4.596773916973227e-11,1791573116656481552
-4.738569259643555e-05,0.0030388832092285156,-5.509933962785701e-11,1791573116686444334
0.0106886625289917,0.006649672985076904,-9.963343534406027e-07,1791573116716357897
0.01755499839782715,0.015540540218353271,-9.93175358380749e-07,1791573116746367597
-0.01856917142868042,-0.04018139839172363,-1.030483512677476e-06,1791573116775291693
-0.004238426685333252,0.019268572330474854,-9.519586834775919e-07,1791573116806601315
0.026277899742126465,0.030010640621185303,-8.821449327603893e-11,1791573116838777383
0.004761457443237305,-0.007851839065551758,-1.2681605595447997e-10,1791573116866343683
-0.006172895431518555,-0.009571313858032227,-1.182138460700056e-10,1791573116896216954
0.004658997058868408,0.013844847679138184,-9.867817987455017e-11,1791573116926086242
0.011880338191986084,0.004873335361480713,-7.984356426616397e-11,1791573116956060617
0.06432861089706421,0.012378454208374023,-0.0006652818626600338,1791573116985939947
1.8948707580566406,0.09346050024032593,-0.015485902125681947,1791573117015915490
0.00917196273803711,-0.23601824045181274,0.017732433661077227,1791573117047265464
0.6446304321289062,0.04987740516662598,-0.01817324457550747,1791573117078727026
-0.1979731321334839,-0.03454601764678955,-0.03808424452331629,1791573117105862828
-0.49825209379196167,0.10129779577255249,-0.03762992145343697,1791573117134690926
0.4647447466850281,0.21654200553894043,-0.006450029492576604,1791573117165629519
0.11018449068069458,-0.09195399284362793,0.020427497980956673,1791573117195653260
0.25240635871887207,0.01300591230392456,0.026718573450993568,1791573117225552729
-0.2932582497596741,-0.04599332809448242,0.020996820071222246,1791573117255507030
0.05162310600280762,-0.2053215503692627,0.016587707639385066,1791573117287013545
0.3267611265182495,0.030811607837677002,0.010811491218813061,1791573117318681494
-0.039936065673828125,0.21290266513824463,0.0022949445040611667,1791573117345457805
-0.1128280758857727,0.17550015449523926,0.0024806165554120047,1791573117374315267
0.6607922911643982,-0.3368043303489685,0.028930509182679424,1791573117404298608
0.03718447685241699,-0.15015101432800293,0.017786791611889903,1791573117435206793
-0.11539548635482788,0.23319566249847412,0.0022257398255058894,1791573117465183032
-0.025501668453216553,0.08909738063812256,0.01867505986155826,1791573117495197159
0.19024503231048584,-0.10467755794525146,0.0034713035874831275,1791573117526463895
0.15293413400650024,-0.12248504161834717,-0.008224953025676237,1791573117558382441
0.09622782468795776,0.23172760009765625,-0.0020749609416120364,1791573117585078034
-0.0038723349571228027,0.027302265167236328,0.0017006089493614587,1791573117614929444
0.17512577772140503,-0.15618115663528442,-0.0108750228348592,1791573117644971088
-0.007424652576446533,0.019356131553649902,-0.006308542727598683,1791573117674836682
0.18947267532348633,0.11274737119674683,0.012328577357856163,1791573117704801244
0.12750273942947388,-0.13941413164138794,0.00837305827393758,1791573117734886286
0.07022315263748169,0.09059184789657593,-0.020950330016403843,1791573117765455640
0.023394763469696045,0.15584009885787964,-0.016878697661396925,1791573117796765484
0.24452966451644897,-0.1164674162864685,-0.0037222960632201925,1791573117824720326
-0.04448425769805908,-0.018407106399536133,0.006662064586451121,1791573117854593941
-0.6864703297615051,0.14198517799377441,0.004190054476005838,1791573117884466714
0.5807688236236572,-0.17627781629562378,0.002021417264654142,1791573117914468459
-0.08451521396636963,-0.08376181125640869,-0.008577660424029214,1791573117944453411
-0.06281673908233643,0.08342927694320679,0.00291996023349754,1791573117974416519
0.3447173237800598,-0.005734622478485107,0.004132889814624975,1791573118007017090
-0.019706428050994873,0.028499066829681396,-0.013489416562852536,1791573118034348059
0.1977689266204834,-0.15007394552230835,0.015201368056334883,1791573118064216606
0.0011574625968933105,0.05642056465148926,-0.011739643631624492,1791573118094276257
-0.09672445058822632,-0.12074899673461914,-0.008610621354424223,1791573118124147652
0.30671030282974243,0.027515649795532227,-0.005425045719330288,1791573118154105984
-0.2615591287612915,0.18942147493362427,-0.0009725397959640242,1791573118184170275
0.5182515382766724,-0.12992310523986816,0.008154716077345846,1791573118214409733
-0.4017730951309204,0.02026921510696411,-0.023206216604704136,1791573118246549024
0.2085440754890442,0.07562112808227539,-0.0030042410475482526,1791573118274259276
0.09532421827316284,0.03873157501220703,0.001720343270141652,1791573118303889055
0.09891068935394287,0.08806431293487549,-0.013037009186455858,1791573118333819648
-0.13232719898223877,-0.006229043006896973,-0.012137056419490833,1791573118363817810
0.4072447419166565,-0.137006938457489,0.018727868652574375,1791573118393737087
0.2721213102340698,0.008742451667785645,0.017057181327361105,1791573118424084424
0.0006578564643859863,0.1776113510131836,0.005091140615214512,1791573118454892936
0.15949201583862305,-0.032111942768096924,0.007940506272636783,1791573118486584840
0.2199418544769287,0.08014070987701416,0.00047264791045702865,1791573118514044599
0.09443622827529907,-0.07622188329696655,-0.0022078988978237483,1791573118544066354
0.1615392565727234,0.013512134552001953,0.0023879974631508187,1791573118574056314
0.0007710456848144531,-0.059977054595947266,0.023489319436628537,1791573118604016789
0.4735605716705322,0.15693068504333496,0.01082738805804279,1791573118634103800
-0.5787529945373535,-0.17977958917617798,-0.003279941531085321,1791573118663965692
0.9362979531288147,-0.015693724155426025,-0.007066161482426447,1791573118694502596
-0.27307069301605225,0.13635104894638062,-0.022233466027736574,1791573118726605769
0.35948801040649414,0.0015990734100341797,-0.04123271693603366,1791573118753188968
-0.5148475170135498,0.028636395931243896,-0.01748490625175625,1791573118783091484
-0.3102022409439087,-0.23524296283721924,-0.006322809434589829,1791573118813069708
0.23657262325286865,0.037521421909332275,0.01972898220933599,1791573118843054788
-0.13697808980941772,-0.08607453107833862,-0.004346251378365768,1791573118872949443
0.11113405227661133,-0.08656972646713257,-0.01922040122796399,1791573118903206907
-0.5915970206260681,-0.1291208267211914,-0.02026315360115357,1791573118934488397
-0.03109079599380493,0.09811460971832275,0.007144726142439664,1791573118965354068
-0.08035379648208618,0.33222949504852295,0.045477449176361255,1791573118991788210
-0.2503519654273987,-0.295087993144989,-0.014832630237521146,1791573119022761293
0.2721351385116577,-0.005345165729522705,-0.00046413563725670564,1791573119052663749
-0.16383254528045654,6.276369094848633e-05,0.019749703467363492,1791573119082636140
-0.5139325261116028,0.2616311311721802,0.014974923835590164,1791573119112625995
0.1893695592880249,-0.11686104536056519,0.013500537669738757,1791573119142624466
-0.3666330575942993,-0.236505925655365,0.027756104365721228,1791573119174475192
0.5291018486022949,0.15193748474121094,0.02811456959287772,1791573119202499056
-0.9333065748214722,-0.12126970291137695,-0.021217593370827702,1791573119232375801
0.7151549458503723,0.14419430494308472,-0.01763660718523658,1791573119262366675
-0.2438129186630249,0.07867640256881714,-0.0084454414366117,1791573119292355128
0.5234947800636292,-0.06414049863815308,-0.006366358271569124,1791573119322280253
-0.03712278604507446,0.1433786153793335,0.008727613766632551,1791573119352271757
-0.2243162989616394,-0.46612125635147095,-0.01022847377203803,1791573119382678627
0.07069331407546997,0.21482151746749878,-0.02722990322058977,1791573119415389512
-0.28637582063674927,-0.24558418989181519,-0.015002102467204277,1791573119442138869
-0.12515473365783691,0.01149815320968628,-0.0011516089502583984,1791573119472076324
0.3218082785606384,0.5993929505348206,0.01777906861561697,1791573119502008245
-0.47170281410217285,-0.34312134981155396,0.009125227899284792,1791573119531939481
0.653509795665741,0.048431575298309326,-0.0027901962926847267,1791573119561930918
-0.33753013610839844,0.12179833650588989,0.006100014958638304,1791573119591928673
0.30968356132507324,-0.18669778108596802,0.018833789468251916,1791573119622516331
-0.16561222076416016,0.3496849536895752,0.028257360465304394,1791573119654547186
0.23542386293411255,-0.20308423042297363,0.0252805685407734,1791573119680915414
-0.06150537729263306,-0.2827543020248413,0.024781610201622367,1791573119711669094
0.29107362031936646,0.37197816371917725,-0.014333624137930033,1791573119741857051
-0.17761635780334473,0.05405694246292114,-0.023321212382108887,1791573119771548316
0.20020991563796997,-0.0405430793762207,-0.007192271055214721,1791573119801563636
-0.5162801146507263,-0.20854973793029785,0.00628625620546215,1791573119831518072
0.3816370964050293,0.18321269750595093,0.001919409786995087,1791573119863176844
-0.405081570148468,-0.12142258882522583,-0.02746551691112592,1791573119894567987
0.20186293125152588,0.047198474407196045,-0.028957758530314657,1791573119921428952
0.004168450832366943,-0.047689855098724365,-0.005060197342906278,1791573119951262729
-0.21456319093704224,0.003128349781036377,-0.009433848088248719,1791573119981236998
0.060504019260406494,0.11085247993469238,0.007697832214435591,1791573120011200916
-0.3378121256828308,-0.08012121915817261,-0.015854107924135906,1791573120041139476
0.4862672686576843,-0.08424991369247437,0.004677256688277885,1791573120071107244
-0.2624660134315491,-0.05260974168777466,-0.01670128467537171,1791573120103007677
-0.18575257062911987,0.32520729303359985,-0.00975379754573842,1791573120133741569
-0.15145343542099,-0.04399383068084717,0.004955659882752819,1791573120161026697
0.06890952587127686,-0.32158875465393066,0.03271169301657151,1791573120190957150
-0.21883326768875122,0.3473912477493286,0.03491996746101664,1791573120220838784
0.010998725891113281,-0.38878053426742554,0.011457443556131678,1791573120249823342
-0.019423246383666992,0.17350566387176514,-0.001790998308832387,1791573120280814421
-0.010138988494873047,0.04651302099227905,0.0004238160724858484,1791573120311272913
-0.5614073276519775,-0.1485545039176941,9.084113897737378e-05,1791573120342502078
0.4173964262008667,0.03874313831329346,0.007621870899027438,1791573120372716251
-0.5695611238479614,-0.02511155605316162,-0.0038166106348962556,1791573120410540518
0.43874621391296387,0.08614957332611084,-0.023803025936563683,1791573120440562196
-0.26436829566955566,-0.09904921054840088,-0.0006134825388279911,1791573120470559202
-0.18416428565979004,-0.19318610429763794,-0.0017220191103619522,1791573120502962833
0.21760720014572144,0.1744910478591919,-0.002231324410603851,1791573120530451976
-0.261340856552124,-0.07616215944290161,-0.014142894106593345,1791573120560342877
-0.07734334468841553,-0.10017168521881104,-0.0183957040886968,1791573120589327455
-0.27341610193252563,0.09724116325378418,0.0026418860072697447,1791573120620265710
-0.261142373085022,-0.1396491527557373,0.043188123148027294,1791573120650211741
0.5737977027893066,0.35729771852493286,0.024728826462138778,1791573120680118750
-0.6759318113327026,-0.19011300802230835,0.0028889746485629797,1791573120710491707
0.23850077390670776,-0.2055807113647461,0.008043120472982465,1791573120742566709
-0.5205426216125488,0.2781516909599304,0.01420390962125419,1791573120770054374
0.5741469264030457,-0.11084204912185669,0.0022137940974883688,1791573120799982987
-0.31463706493377686,0.3010445237159729,0.004702493805672649,1791573120829936893
0.07716405391693115,-0.02268153429031372,0.013027239408602145,1791573120859838685
0.1995970606803894,-0.34006625413894653,0.013023744425080197,1791573120889836105
-0.028244316577911377,-0.01787543296813965,-0.0018541957746591744,1791573120919788509
0.0002557039260864258,0.15658944845199585,-0.022028242668440896,1791573120950981431
-0.2645447850227356,-0.22128844261169434,-0.01936961016332838,1791573120982891555
-0.05510526895523071,-0.023448467254638672,0.0023081695303572374,1791573121009720463
0.8469398617744446,0.2758985161781311,0.008888187699630947,1791573121039809010
-0.1455516219139099,-0.05977100133895874,-0.04038177144612385,1791573121069720756
-0.0255853533744812,-0.023400962352752686,-0.0306692933208651,1791573121099600158
-0.20265334844589233,-0.05358844995498657,-0.0039658346515117175,1791573121129701391
-0.19939857721328735,0.053678691387176514,-0.00578022809266077,1791573121159593161
0.07425707578659058,0.30701637268066406,0.007239764956307931,1791573121190729118
0.031636953353881836,-0.3187468647956848,0.032537903664500045,1791573121222623075
0.15973728895187378,0.08353936672210693,0.02512537661513876,1791573121249592401
0.32909560203552246,0.07544630765914917,0.000268484982025398,1791573121279783701
-0.3854225277900696,-0.0686960220336914,0.006731050514713219,1791573121309339340
-0.09873414039611816,0.2544543743133545,0.005547654218345179,1791573121339407341
0.011444151401519775,-0.20862972736358643,0.01550432240045206,1791573121368312263
0.10219568014144897,-0.01453852653503418,0.023344110673636766,1791573121399370431
-0.18216270208358765,-0.06703740358352661,0.0019180661383549832,1791573121431197479
-0.08872050046920776,0.06459575891494751,-0.022313609819546717,1791573121461764016
0.49726372957229614,0.17740398645401,-0.010549216394777551,1791573121489223652
-0.5533682107925415,-0.203108012676239,-0.0034330892817018657,1791573121519269744
0.7037163376808167,0.05390429496765137,0.008916870624580813,1791573121549262308
-0.48454731702804565,0.016270458698272705,-0.010125844514897895,1791573121578324984
0.39587974548339844,-0.2382776141166687,-0.03140595593268813,1791573121609225537
-0.5756771564483643,0.1409863829612732,-0.025303932323758126,1791573121639269813
0.29436928033828735,-0.16976946592330933,0.001117783482592628,1791573121670632137
-0.38309812545776367,0.30307215452194214,0.026789362673756773,1791573121700667268
0.02182251214981079,-0.20166021585464478,0.02017373428304726,1791573121729238044
-0.1707087755203247,-0.22628629207611084,-0.0016642348093461254,1791573121759135418
0.3823894262313843,0.19031310081481934,-0.00752739459007907,1791573121788425956
-0.16674363613128662,0.11008292436599731,-0.016538173565487944,1791573121818405772
-0.119351327419281,0.10755783319473267,-0.007226711609814278,1791573121848350429
-0.6544195413589478,-0.0656888484954834,0.016643934957429662,1791573121879141713
0.31766021251678467,-0.021934330463409424,0.03004680210030172,1791573121911024452
-0.3208116888999939,-0.07059526443481445,0.013358288466398935,1791573121938268267
0.3262467384338379,0.018542110919952393,-0.007559303523774512,1791573121968124570
-0.25821053981781006,0.04141807556152344,-0.0046671103004395816,1791573121998171298
0.133294939994812,-0.009579718112945557,-0.012514439064772747,1791573122028059746
0.10917413234710693,0.024401605129241943,-0.0066648928647182705,1791573122058002521
-0.3125718832015991,0.05681079626083374,-0.040252543805759294,1791573122088003951
0.5618327856063843,0.10565519332885742,-0.011329167183025818,1791573122118724809
-0.27091121673583984,-0.2059006690979004,-0.005228939905744751,1791573122150603276
-0.1156572699546814,0.18290984630584717,0.006137921073212824,1791573122177888769
-0.20537203550338745,-0.072573721408844,0.0016664658712614716,1791573122207765467
0.16811484098434448,-0.24607563018798828,0.002036803097065133,1791573122237721387
0.028583765029907227,0.06990569829940796,0.0061249919986531304,1791573122267671318
-0.039332807064056396,-0.15739232301712036,-8.481442965504432e-05,1791573122297793124
0.08059430122375488,0.2122483253479004,0.002773538157471779,1791573122327595039
-0.2289828658103943,0.09842813014984131,0.015687508890521232,1791573122359179932
-0.2491326928138733,-0.11935985088348389,0.006992831119418185,1791573122390633130
0.3208438754081726,0.0241774320602417,0.008756918218987251,1791573122417535537
-0.35624009370803833,-0.2446923851966858,0.011634417775767921,1791573122447446869
0.38855648040771484,0.08579415082931519,-0.00170572027256063,1791573122477433092
-0.17450463771820068,0.04331701993942261,0.00029385281592587026,1791573122506301310
-0.10181194543838501,-0.22772765159606934,0.004361345039216215,1791573122537250795
0.07297098636627197,0.051633477210998535,0.016383367267398828,1791573122567215884
-0.0027309060096740723,-0.043869853019714355,0.0014372897732815866,1791573122598719124
0.04419755935668945,-0.11650604009628296,-0.00843833203658941,1791573122629827801
-0.13085973262786865,0.13395005464553833,-0.023499350435997764,1791573122657046089
-0.20625531673431396,-0.1326230764389038,-0.013719428269711367,1791573122686991498
0.15914130210876465,0.3524925112724304,0.006269339226770347,1791573122716959157
-0.5654370188713074,-0.23654508590698242,0.0044975814012954834,1791573122747167215
0.47001343965530396,-0.00541377067565918,-0.009592036118816882,1791573122776870924
-0.2522972822189331,0.16425251960754395,-0.006162893860048941,1791573122807355669
0.12533146142959595,-0.19935399293899536,0.01195895819562777,1791573122839119154
-0.27733659744262695,0.17699915170669556,0.01759351003724621,1791573122868827952
-0.269062340259552,-0.04785120487213135,0.006177705608243684,1791573122896704117
0.25860363245010376,-0.1236618161201477,0.0073634694278454675,1791573122926610169
-0.05185139179229736,-0.02869361639022827,0.0020449553234953848,1791573122956585421
0.05076974630355835,0.06848227977752686,0.002736949825112147,1791573122986532057
-0.5286563038825989,-0.06948864459991455,0.00649076874914639,1791573123016452457
-0.051965296268463135,0.07712382078170776,0.010367046506994142,1791573123046942009
0.33642250299453735,0.1923224925994873,0.017550790644031145,1791573123078806117
-0.49415433406829834,-0.2671884298324585,-0.028978253639165587,1791573123106380366
0.5170570611953735,0.05254274606704712,-0.026920074996906976,1791573123135313586
-0.2066747546195984,-0.10734951496124268,-0.01192547716102218,1791573123165306098
-0.3193173408508301,0.36298203468322754,-0.01761515270112772,1791573123196237252
-0.09741777181625366,-0.19301730394363403,-0.002224326333150892,1791573123226183863
0.0543784499168396,-0.11695820093154907,0.00858640118028122,1791573123256171888
0.3878815174102783,0.19158506393432617,0.013384345090376676,1791573123286882474
-0.9823307991027832,-0.2800150513648987,-0.015836116816824685,1791573123318179546
0.5220386981964111,0.235104501247406,-0.02078998265719662,1791573123346416971
-0.17855823040008545,-0.052966296672821045,-0.02094807125810711,1791573123375928063
0.6254008412361145,0.1401219367980957,-0.01362925031426321,1791573123405888421
-0.03576779365539551,0.04031717777252197,0.008421159696455688,1791573123435820139
-0.08946126699447632,-0.32982075214385986,0.006826643209545394,1791573123465773161
-0.017447471618652344,0.1572122573852539,-0.0013597718610536542,1791573123495763328
-0.20850539207458496,-0.28574520349502563,0.015290534204671,1791573123526856599
-0.26502662897109985,0.0973045825958252,0.02827807102418712,1791573123559082727
0.6099359393119812,0.4028463363647461,0.028094777063905,1791573123585613546
-0.019430458545684814,-0.3758533000946045,0.008262900436342058,1791573123615558279
0.8597577810287476,0.1174306869506836,6.949276947984393e-05,1791573123645535896
-0.6948722004890442,0.022280097007751465,-0.012490482179116035,1791573123675447558
0.7399056553840637,-0.09629255533218384,-0.0021860524015883008,1791573123705456852
-0.28510451316833496,0.42127710580825806,0.003265335711416037,1791573123735476049
0.29146331548690796,-0.35042697191238403,-0.00918832460776589,1791573123766309806
0.21325558423995972,0.01860255002975464,-0.010120448602083556,1791573123798017481
-0.2292616367340088,-0.08967721462249756,-0.02589184707289252,1791573123825370448
-0.15475994348526,0.05825728178024292,-0.02805393855716208,1791573123855534241
0.10109710693359375,0.06469440460205078,-0.02407044112834323,1791573123885200384
-0.5662689208984375,-0.2910534739494324,-0.004336043754021221,1791573123915121263
0.3450724482536316,0.20147490501403809,0.020332193190759004,1791573123945034612
-0.13046550750732422,-0.13282710313796997,0.01958684013528244,1791573123975026230
0.7339744567871094,0.16081613302230835,0.006327017612496721,1791573124008092250
-0.1292148232460022,-0.123241126537323,-0.002454526579347097,1791573124034912663
-0.2329384684562683,0.07137960195541382,-0.008765479219121802,1791573124064832906
0.12759393453598022,0.17897570133209229,0.006445842800798742,1791573124094824401
-0.10398918390274048,-0.11592578887939453,-0.004007067222788913,1791573124124731339
0.29525524377822876,0.1414145827293396,0.023216698966436175,1791573124154769697
-0.03731381893157959,-0.05096280574798584,0.03438565476833931,1791573124184651619
-0.14364665746688843,0.09288865327835083,0.019207742732617834,1791573124215175167
-0.16418367624282837,-0.13114947080612183,-0.012181553865210951,1791573124246838432
-0.23850572109222412,-0.12580835819244385,0.00329093732478038,1791573124274668547
0.11408841609954834,0.1649736762046814,0.01766721980748658,1791573124304563036
-0.1982375979423523,-0.206451416015625,-0.009844658457278974,1791573124334469529
0.16857153177261353,0.15602827072143555,-0.01554898314470052,1791573124364388885
-0.32265883684158325,0.0487593412399292,-0.008545887390207115,1791573124394552743
-0.3432687520980835,-0.1904410719871521,-0.00876931647194674,1791573124423296174
0.05264723300933838,0.15156978368759155,-0.004032559149520268,1791573124455769712
-0.6180055737495422,-0.3198925852775574,-0.004150295685828371,1791573124486886969
0.693617582321167,0.13222718238830566,-0.0006960735101108626,1791573124514722917
-0.5126457214355469,-0.12984275817871094,0.01347557928834775,1791573124544104393
0.2987790107727051,-0.021354973316192627,0.02061978709389175,1791573124574067906
-0.01901423931121826,0.3340187668800354,0.025784971378238954,1791573124604006917
0.004635989665985107,-0.18408936262130737,0.012526409301102933,1791573124634282564
-0.04211926460266113,0.09591090679168701,0.00741560142121646,1791573124663999643
-0.2637578845024109,0.008256494998931885,0.006183271346431791,1791573124695386509
0.3610333800315857,-0.21246546506881714,0.016216130456285022,1791573124727341766
0.16053825616836548,0.5314561724662781,0.021843113709874552,1791573124754161501
-0.2606157064437866,-0.2754583954811096,-0.009855429688240023,1791573124784002866
0.6163694858551025,-0.14720600843429565,0.0017153018442535642,1791573124813684230
-0.14501512050628662,0.020884037017822266,-0.007174814599148722,1791573124843622601
0.4206092953681946,-0.056193411350250244,-0.024254862936362788,1791573124873915702
-0.2570927143096924,0.2488420009613037,-0.02590039806724396,1791573124903744737
0.01880025863647461,-0.1645374894142151,-0.014428779865193345,1791573124935197746
0.08668774366378784,-0.07317560911178589,0.019831413221879996,1791573124966930765
0.10218405723571777,0.16576308012008667,-0.001870387457654888,1791573124993800556
0.43312984704971313,-0.09274065494537354,-0.014959318594574906,1791573125022377331
-0.2864025831222534,-0.08783400058746338,-0.004842736122483456,1791573125052380589
-0.1395639181137085,0.2539127469062805,0.016450253838284593,1791573125083231210
-0.1646994948387146,0.031046807765960693,0.034446081953979,1791573125113196938
-0.13503509759902954,-0.08402544260025024,-0.014457987495722892,1791573125143483252
-0.0244256854057312,-0.11965227127075195,-0.015170877017926096,1791573125175192093
-0.21242856979370117,-0.033128321170806885,0.02169487105372534,1791573125205173504
-0.08405125141143799,0.24454939365386963,0.03575540570985465,1791573125232116726
-0.017921805381774902,-0.0836668610572815,0.022779551367494284,1791573125263201011
-0.17368149757385254,-0.14390820264816284,0.011135046241366117,1791573125292999012
0.34386003017425537,-0.015866875648498535,0.008452139298185984,1791573125322870537
-0.43394380807876587,-0.05727869272232056,-0.011402716221700701,1791573125352841896
0.34167391061782837,0.1737055778503418,-0.005922140080652641,1791573125382984377
-0.4652944803237915,0.059977710247039795,0.004085419592812664,1791573125414922586
0.5404660701751709,-0.08596211671829224,-0.005454828710264382,1791573125442838691
-0.054870426654815674,0.04841667413711548,-0.0015153156539310221,1791573125472611287
-0.15282821655273438,-0.20813578367233276,-0.011583421279839025,1791573125502614461
-0.19996196031570435,0.12118422985076904,-0.02156036766509613,1791573125532550272
-0.1346302032470703,-0.10276973247528076,-0.005225998911410132,1791573125562512797
-0.6479639410972595,-0.11407119035720825,0.00484043396101621,1791573125592731935
0.6372853517532349,0.28380119800567627,0.012436877538503274,1791573125623223406
-0.42382341623306274,-0.19300603866577148,0.010274739538210323,1791573125655033144
0.7886817455291748,-0.017156898975372314,-0.0018655541488487057,1791573125682444974
-0.6748326420783997,0.16266942024230957,0.002061617119813182,1791573125712277963
0.6247406005859375,-0.2836475968360901,0.012161624571274418,1791573125742209360
-0.15759027004241943,0.5484115481376648,0.0333597179593084,1791573125772201568
-0.23364412784576416,-0.3844837546348572,0.025239641718950892,1791573125801149811
0.2834740877151489,-0.18227899074554443,0.017609265219404344,1791573125832069110
0.2736048698425293,0.1397344470024109,0.0007904952165194347,1791573125862881999
0.2869088053703308,-0.06837707757949829,-0.014521473857992797,1791573125894827847
-0.2907031178474426,0.1609281301498413,-0.009450065954236926,1791573125922042652
0.25469207763671875,0.0764930248260498,-0.0016947193850857655,1791573125951905471
0.4090278744697571,-0.17942142486572266,0.006302035049912444,1791573125981866601
-0.33892714977264404,0.03288084268569946,-0.00024098599290456394,1791573126011783966
0.4466186761856079,0.02011251449584961,-0.008738277583742085,1791573126041789082
-0.2006392478942871,0.04744720458984375,-0.007508906509228849,1791573126071735279
-0.22619110345840454,0.0883297324180603,-0.007762811208153855,1791573126102834601
0.021225333213806152,-0.20319479703903198,-0.004798362302570032,1791573126135509257
-0.27114951610565186,0.14391666650772095,-0.023832636599484265,1791573126161683438
0.5954396724700928,0.029488980770111084,-0.007042984598063016,1791573126191493241
-0.4329119324684143,-0.028179824352264404,0.0027418454296589106,1791573126221502298
0.42198699712753296,0.08799880743026733,0.019057921553333988,1791573126251424995
-0.5576237440109253,-0.12440729141235352,0.004534113556271869,1791573126281349383
0.4055131673812866,0.1240767240524292,0.011357277519706409,1791573126311375320
-0.2629969120025635,-0.16505616903305054,0.03861428303734541,1791573126342938899
-0.058079421520233154,-0.1305127739906311,0.018382132372163067,1791573126373983859
0.32064133882522583,0.1544896960258484,0.022330916132527495,1791573126401208699
-0.2762976288795471,0.05281484127044678,-0.005763611336262371,1791573126431133706
0.2831803560256958,0.06829142570495605,-0.009620239445972144,1791573126453604131
0.0403594970703125,0.058053433895111084,-0.009999035074031392,1791573126481046531
0.07805478572845459,-0.0324399471282959,0.0008023944618643769,1791573126511011444
-0.2624046206474304,-0.051937997341156006,-0.012882484171752103,1791573126540909181
-0.20991545915603638,0.08904862403869629,-0.009804251064130413,1791573126570931685
-0.32053500413894653,-0.016733288764953613,8.012444492106911e-05,1791573126600944310
-0.4184253215789795,-0.14487242698669434,0.0060945195469262105,1791573126630881275
0.19845986366271973,-0.10151094198226929,0.0048861695137143194,1791573126662879067
0.19591635465621948,0.17109978199005127,-0.014126545808108813,1791573126690912470
-0.05685853958129883,-0.0912250280380249,-0.006689339206939478,1791573126720637632
0.5023045539855957,-0.15521758794784546,0.006640757286518793,1791573126750640014
-0.3563414216041565,0.30474191904067993,0.022399340952637313,1791573126780606002
0.21261006593704224,-0.32435524463653564,0.0009662978346915624,1791573126810558686
0.08632802963256836,0.07299023866653442,0.003997541483940106,1791573126840494761
-0.11667799949645996,-0.11903506517410278,0.004627352932403785,1791573126870846895
-0.030047059059143066,0.037295639514923096,0.009028477864999183,1791573126903503220
-0.05281573534011841,0.016694724559783936,0.011750510546574977,1791573126930399804
0.21462780237197876,-0.20667284727096558,0.011434811282060134,1791573126959304546
-0.2989497780799866,0.08166247606277466,0.0021822430428069008,1791573126989304556
-0.04066723585128784,0.11262047290802002,-0.006472761319080127,1791573127019181785
0.16895335912704468,-0.14551085233688354,-0.0014658207843594683,1791573127050165759
-0.3594459295272827,0.05635356903076172,-0.012664647310576371,1791573127080110498
0.2793479561805725,-0.12743794918060303,-0.010534942203175295,1791573127111087669
-0.5146946907043457,-0.07593923807144165,0.002244544605264059,1791573127143110835
0.691618800163269,0.16856426000595093,-0.0038792440155848143,1791573127170020576
-0.368503212928772,-0.16679102182388306,-0.02706946292183807,1791573127199923322
0.31615763902664185,0.007240176200866699,-0.020097627886478807,1791573127229908538
-0.046617865562438965,-0.04539358615875244,-0.013543280550812999,1791573127259859681
-0.28424370288848877,0.01464378833770752,-0.01143462173028839,1791573127289821018
-0.03885906934738159,0.23795217275619507,0.006787137857970375,1791573127319826432
0.43746715784072876,-0.23780792951583862,0.03800158945059232,1791573127352157058
-0.23527103662490845,0.04778027534484863,0.021367015909563917,1791573127382372881
0.4188152551651001,0.04180365800857544,0.0008409155150397868,1791573127410063623
-0.17465758323669434,-0.1901717185974121,0.016428471271592523,1791573127439952403
0.130201518535614,0.16528594493865967,0.0018374434782213972,1791573127469715440
-0.2621404528617859,0.08699989318847656,0.01948537890076532,1791573127499770152
0.0853724479675293,-0.10992646217346191,0.022294998847312997,1791573127529698794
0.0454937219619751,-0.10378420352935791,-0.0013586754765532647,1791573127559648969
-0.15855085849761963,-0.05316418409347534,-0.01704800758119024,1791573127591522798
0.318503201007843,0.12776082754135132,-0.004953998709202833,1791573127622014153
-0.5002530217170715,-0.021381616592407227,-0.0014316185088678298,1791573127649613977
0.8183537125587463,-0.023255765438079834,0.00815420328032834,1791573127679899077
-0.08648443222045898,-0.19159144163131714,0.0022707419733729497,1791573127701803406
0.19013822078704834,-0.3284255862236023,-0.02593239873539343,1791573127739559499
-0.6217347383499146,0.12018758058547974,-0.014748441705311708,1791573127769524705
0.016473114490509033,-0.08619731664657593,0.00572330594438344,1791573127799731933
-0.395002543926239,0.06553292274475098,0.002482570670335288,1791573127830960052
0.07392477989196777,0.10832947492599487,0.011667109278319694,1791573127861192557
-0.41870617866516113,-0.07043004035949707,-0.003922159836857315,1791573127899464831
0.4291558861732483,-0.12379336357116699,-0.015458047261173795,1791573127929508969
-0.4679589867591858,0.07144373655319214,-0.007669905999087536,1791573127959588228
0.5341885685920715,0.03389739990234375,0.004404932863163747,1791573127991331523
-0.6277167797088623,-0.029290378093719482,0.024016757565247248,1791573128019088433
-0.11651605367660522,0.08583921194076538,0.02542313520347944,1791573128049684745
0.17401939630508423,-0.039943575859069824,0.011271662121648799,1791573128078709286
-0.3165845274925232,0.003299713134765625,0.009352990948368018,1791573128108518483
-0.39085209369659424,0.011048197746276855,0.004181483920440451,1791573128138531827
-0.09148776531219482,-0.17055028676986694,0.0032880951979977696,1791573128168387640
-0.31259655952453613,0.07265794277191162,-0.023950120231133257,1791573128199083737
0.7192748188972473,-0.11939030885696411,-0.04081461776252519,1791573128231009601
-0.5993844866752625,0.04502683877944946,-0.031988936200445545,1791573128257296458
0.4291572570800781,0.26393675804138184,-0.011265060812628645,1791573128287229670
-0.4851154088973999,-0.13616055250167847,-0.0025357620345429327,1791573128317307557
0.603050172328949,0.17863190174102783,-0.002383741835429558,1791573128348121968
-0.133464515209198,-0.30326128005981445,0.02176412364662866,1791573128378058888
-0.32461148500442505,-0.034255921840667725,0.012811900909624167,1791573128408084653
0.6600773334503174,0.19065046310424805,-0.011210504791822604,1791573128439584016
0.1646912693977356,-0.0749024748802185,-0.020732275059910307,1791573128470987879
-0.08614873886108398,0.11836540699005127,-0.0006900639140069776,1791573128497955471
0.4334625005722046,0.09706836938858032,0.014297786110965922,1791573128527802891
-0.24386358261108398,-0.08492159843444824,0.019229157631127754,1791573128557807494
0.33685237169265747,0.10892409086227417,0.007865137578537946,1791573128587741026
-0.47020047903060913,-0.057533860206604004,-0.006821695526548226,1791573128617663100
0.24480676651000977,-0.04915660619735718,0.003637999059041049,1791573128647662309
-0.22404730319976807,0.040222108364105225,0.01259997332793752,1791573128679037351
0.538853108882904,-0.07663226127624512,0.009284218743319476,1791573128710789349
0.06977462768554688,0.10254037380218506,-0.0139913812462088,1791573128737584953
-0.2637808918952942,-0.09487807750701904,-0.01533208898601227,1791573128767471306
0.19385462999343872,0.0077048540115356445,-0.007343672110671418,1791573128797393696
-0.459220290184021,0.17494314908981323,0.007530475739873905,1791573128827352755
0.17369979619979858,-0.2295590043067932,-0.012716085648876163,1791573128856330012
-0.1793178915977478,0.08071291446685791,-0.009616109399879462,1791573128887502502
-0.08338814973831177,-0.25572794675827026,-0.01822815848075462,1791573128919107598
-0.15341120958328247,0.16688549518585205,-0.023619567729277372,1791573128949766659
-0.032807230949401855,0.0004878044128417969,-0.0026251890482554053,1791573128977103002
0.086947500705719,-0.030722498893737793,0.013328345247339302,1791573129007134903
-0.18163138628005981,0.11848986148834229,0.010721367915867313,1791573129037025919
0.06250441074371338,0.06581544876098633,0.0075329490557390875,1791573129066991009
0.30286282300949097,-0.24244803190231323,0.004155325233891308,1791573129096964554
-0.21309810876846313,0.1314343810081482,0.0009804663312511334,1791573129127204283
0.30643534660339355,-0.050936758518218994,0.007818512661153182,1791573129159482145
-0.47939443588256836,-0.18652701377868652,0.0325290135487474,1791573129186851768
