acc_x, acc_y, angular_z, stamp, 
-0.011688709259033203,-0.006166934967041016,1.9932870403079545e-06,1791573178110198261
-0.034888505935668945,0.011631548404693604,9.89813673912085e-10,1791573178140280313
0.008369088172912598,-0.026139497756958008,1.1739288371739419e-09,1791573178170178063
0.01385343074798584,-0.0116233229637146,1.0068447440330742e-09,1791573178202025447
0.003231525421142578,-0.005990862846374512,1.923301248415987e-06,1791573178233030430
-0.004020333290100098,-0.007653534412384033,9.491090346458017e-10,1791573178260441092
-0.027132928371429443,-0.0002174973487854004,9.9849903698912e-10,1791573178299913068
0.032289326190948486,-0.01086580753326416,5.984075216234327e-10,1791573178330462840
-0.009202837944030762,-0.012500524520874023,4.855828210649668e-10,1791573178361815718
-0.011090278625488281,-0.0033144354820251465,3.8564666006592063e-10,1791573178392246911
-0.03602492809295654,-0.006791651248931885,1.592010007981429e-06,1791573178429696857
-0.007177889347076416,-0.019288599491119385,2.722167668091371e-10,1791573178459701882
-0.0036019086837768555,-0.020914971828460693,2.1319209776589773e-10,1791573178489916295
-0.0020180940628051758,-0.002651810646057129,1.0997045610138422e-10,1791573178522619047
-0.01652628183364868,-0.027596712112426758,-2.3476649192674104e-11,1791573178549549252
-0.01853102445602417,0.012055456638336182,-4.8654337091251105e-11,1791573178579445600
0.011912107467651367,0.015687406063079834,-4.538293655068605e-11,1791573178609401441
0.02255028486251831,-0.0022971630096435547,-3.9413979513203014e-11,1791573178639392779
-0.0081254243850708,-0.0058463215827941895,-2.4848209022771733e-11,1791573178668288003
0.018744230270385742,0.02302628755569458,-3.567341268291258e-11,1791573178699374090
-0.0028890371322631836,0.003172457218170166,-2.3392012987080335e-11,1791573178729889187
0.007560133934020996,-0.01304006576538086,-4.2529581052556445e-12,1791573178761567886
0.0036491751670837402,-0.003997504711151123,1.275888512981663e-11,1791573178789189568
-0.005678057670593262,0.014083564281463623,4.3886603888267087e-11,1791573178819110142
0.010401546955108643,0.014059126377105713,7.590331533106535e-11,1791573178849031058
0.029869019985198975,0.004895150661468506,9.335470518058039e-12,1791573178879085175
-0.006565392017364502,-0.02042686939239502,-1.2246593066760108e-11,1791573178907962782
-0.021387994289398193,0.010072827339172363,-1.5937452642728785e-11,1791573178937901426
-0.003533601760864258,-0.0025786161422729492,-5.596946888158604e-11,1791573178970478142
0.023361563682556152,0.0026271939277648926,-1.8923523874438292e-06,1791573179001977496
0.021451234817504883,-0.006435990333557129,-2.2232924331695145e-06,1791573179028788535
-0.021786808967590332,-0.001107633113861084,-2.1636579209211587e-10,1791573179058730948
-0.018051505088806152,-0.00650709867477417,-1.7522974049018752e-10,1791573179088676321
-0.0035028457641601562,0.004275500774383545,-1.992967387682536e-10,1791573179118655340
0.02890568971633911,0.004257559776306152,-1.5696378049741103e-10,1791573179148576306
0.030638515949249268,-0.006556391716003418,-1.5472803618508859e-10,1791573179178595607
-0.027007877826690674,-0.013690292835235596,-1.4958607026285196e-10,1791573179209818426
-0.025098681449890137,0.006134212017059326,-8.624757727952026e-11,1791573179241783135
0.01805788278579712,-0.0010237693786621094,-6.410453292961518e-11,1791573179268428151
0.010658800601959229,-0.011799514293670654,-8.328335276655835e-11,1791573179297321046
-0.002070009708404541,0.006200075149536133,-4.160512085193493e-11,1791573179321592034
-0.009088337421417236,0.0045059919357299805,-1.6251292571949572e-06,1791573179358269908
0.012636840343475342,0.015316486358642578,-1.994410095132148e-06,1791573179388156077
0.01440131664276123,-0.004498958587646484,-7.470074104562181e-12,1791573179418221623
-0.025311768054962158,-0.018827378749847412,-4.0232018403529025e-11,1791573179450122697
-0.02154630422592163,0.013644754886627197,-8.303946645914781e-12,1791573179480835036
-0.02488577365875244,-0.007829010486602783,1.3153345333039634e-11,1791573179508056859
0.01667886972427368,-0.009536385536193848,2.023624669694393e-11,1791573179538034330
0.005927026271820068,-0.016588687896728516,2.631466641883611e-11,1791573179566947128
-0.02800309658050537,-0.010940372943878174,3.554275302338215e-11,1791573179598055381
-0.0041841864585876465,0.012666463851928711,-1.9535719011637522e-11,1791573179626938596
0.039136409759521484,-0.005137324333190918,-9.684229476540256e-11,1791573179657803954
-0.0022002458572387695,0.011111676692962646,-1.0633113918546779e-10,1791573179689928458
-0.023805320262908936,0.0005033016204833984,-1.0497076987908272e-10,1791573179717757126
-0.0002868175506591797,0.018492400646209717,-1.2433284342790916e-10,1791573179747598487
-0.010894477367401123,0.011126399040222168,1.982946778751418e-06,1791573179777654825
0.039325594902038574,0.010846495628356934,1.995138605075049e-06,1791573179807528135
-0.01645416021347046,-0.0019702911376953125,-3.136453608918368e-11,1791573179837474916
-0.0038965344429016113,-0.007505357265472412,-2.6065940860582956e-11,1791573179867470440
0.006956040859222412,0.013781070709228516,1.9265429825643793e-06,1791573179898409069
0.03197211027145386,-0.013447701930999756,1.8744224467241629e-06,1791573179930208440
-0.01840054988861084,-0.020735621452331543,2.7306656327960465e-11,1791573179957368616
0.008612096309661865,-0.0045011043548583984,3.36024556865842e-11,1791573179986331896
0.010625958442687988,-0.004484593868255615,3.8338863942392296e-11,1791573180017190341
-0.001782536506652832,0.013492405414581299,5.442565567169457e-11,1791573180047194054
-0.012493729591369629,-0.011639058589935303,4.044252697571331e-11,1791573180077131815
-0.026680588722229004,-0.025985002517700195,5.913040835921914e-11,1791573180107065805
-0.0013045668601989746,0.0028321146965026855,3.886037577144866e-11,1791573180137722215
0.015117943286895752,-0.0007715225219726562,3.366553277458154e-11,1791573180169807367
0.027580559253692627,0.000990450382232666,3.665532070000469e-11,1791573180196995243
0.005659699440002441,-0.02043670415878296,3.130195180334213e-11,1791573180226927142
-0.014391481876373291,-0.021866559982299805,-3.0273905169399734e-11,1791573180256828854
0.005344808101654053,0.025056421756744385,-3.580293302811905e-11,1791573180286299028
0.006739139556884766,0.025110721588134766,-1.2972828452617675e-11,1791573180317356641
-0.020303547382354736,-0.000760197639465332,-0.0001376074340405781,1791573180347244522
0.4170956015586853,0.08965253829956055,0.010562361093893077,1791573180378106919
0.03891044855117798,0.4786232113838196,0.19853545333848693,1791573180409820680
2.0103609561920166,0.34847187995910645,0.43449049691654845,1791573180437201213
-0.12764090299606323,-0.10678112506866455,0.4041703360332493,1791573180466440397
0.9273217916488647,0.05161565542221069,0.4746594878128084,1791573180496578951
0.09295797348022461,0.3611663579940796,0.535763164450702,1791573180526412825
0.6225268244743347,-0.05134475231170654,0.6146600148458782,1791573180556494101
0.49600642919540405,0.23536843061447144,0.702611157235129,1791573180586353231
0.45074784755706787,-0.008738338947296143,0.6993997669039933,1791573180618101887
0.5988270044326782,0.2745588421821594,0.8025156882304888,1791573180648358289
0.6485888957977295,0.8472565412521362,0.9582010333307834,1791573180676173202
-0.23720461130142212,-0.1857038140296936,0.9127424609092671,1791573180706245063
0.3103099465370178,-0.6224543452262878,0.9292671987082072,1791573180736034685
-0.028303682804107666,0.2508944272994995,0.907232505087497,1791573180766232684
0.016170084476470947,0.4105326533317566,0.8932823455903878,1791573180795998250
-0.30602866411209106,0.40521472692489624,0.856998445734958,1791573180826374370
0.12202531099319458,0.30381643772125244,0.7748011766954793,1791573180857718075
-0.36638855934143066,-0.6688594818115234,0.855728937708935,1791573180885907221
0.5282729864120483,-0.1751326322555542,0.8010900364966344,1791573180915757784
-0.07507318258285522,0.6901527047157288,0.7642634213808283,1791573180945834131
0.566703736782074,0.40106409788131714,0.7499816708496412,1791573180975916183
0.36459678411483765,0.372435986995697,0.7330111496258581,1791573181005693711
-0.2524833083152771,-0.6274445056915283,0.7595476156754548,1791573181035621641
-0.09654110670089722,0.17532265186309814,0.7155554824860164,1791573181065748172
-0.25675511360168457,0.375781774520874,0.6599003295450174,1791573181097892641
0.641323447227478,0.036241769790649414,0.796676495127999,1791573181125518707
-0.5998772978782654,-0.04193335771560669,0.7226559123420251,1791573181155452104
-0.14923536777496338,-0.022223830223083496,0.7062627893271733,1791573181185373769
0.06990665197372437,0.2712373733520508,0.7144288391672036,1791573181215338794
-0.46425849199295044,0.45716530084609985,0.7278294506695578,1791573181244332001
0.6276696920394897,-0.11455488204956055,0.6886478067309634,1791573181275233895
-0.134801983833313,-0.14206016063690186,0.6970788012199473,1791573181306037708
0.15192776918411255,0.31928980350494385,0.6343755553060245,1791573181338219725
-0.6228666305541992,0.4159938097000122,0.7621560249632652,1791573181364512554
-0.2030584216117859,-0.5537487864494324,0.6885571506458441,1791573181394100839
-0.3067687749862671,-0.22743582725524902,0.657024628000495,1791573181424981822
0.7124392986297607,0.7438175678253174,0.661683266572066,1791573181454928579
-0.23816651105880737,0.06720679998397827,0.6629455615691513,1791573181485101292
0.3528022766113281,-0.6798496842384338,0.6503060137344401,1791573181514904516
-0.15346717834472656,0.6597352623939514,0.6293155659165589,1791573181545981474
0.946438729763031,0.6571066975593567,0.6320813561772173,1791573181578004035
-0.6493284702301025,-0.6309937834739685,0.714315894372303,1791573181604803575
0.23923742771148682,-0.3199841380119324,0.6613506786130572,1791573181634640261
0.32794278860092163,0.8640144467353821,0.6265300679037544,1791573181664625179
-0.28415417671203613,0.2914557456970215,0.5928218142472853,1791573181694596368
-0.4072020649909973,-0.6509907841682434,0.6063673517734356,1791573181724536026
0.32237154245376587,-0.005729019641876221,0.6169604196651267,1791573181754521821
0.5439882874488831,0.8403598666191101,0.5516930745131546,1791573181786179235
-0.2059394121170044,-0.2870110869407654,0.5543146738098319,1791573181817774042
-0.042208969593048096,-0.5572172999382019,0.6804536630216772,1791573181844401983
0.3079410195350647,0.7335198521614075,0.5903594023298204,1791573181873309769
0.25644630193710327,0.41265320777893066,0.5260011524317406,1791573181904262168
-0.283866822719574,-0.6450484991073608,0.5665635099179538,1791573181934225215
0.3613590598106384,0.2673378586769104,0.5552853252245763,1791573181964158566
-0.2507757544517517,0.7558298110961914,0.558100038840094,1791573181994120441
0.19839191436767578,-0.479358971118927,0.5157014431817306,1791573182025093055
-0.16423332691192627,-0.2768007516860962,0.5092729730069037,1791573182056584123
0.39322274923324585,0.7016473412513733,0.6144015389957704,1791573182083956113
-0.38683152198791504,0.07528293132781982,0.5511434150671553,1791573182113931141
0.34489667415618896,-0.4275044798851013,0.5376016179857088,1791573182143889051
0.4116225838661194,0.5183525085449219,0.5479928177998248,1791573182173823055
-0.09682226181030273,0.37723642587661743,0.5203525057726618,1791573182203918638
0.21499526500701904,-0.4668586850166321,0.5053855778501578,1791573182234268187
-0.0650334358215332,0.283866286277771,0.5169533032684145,1791573182265729974
0.5066569447517395,0.7319046258926392,0.5512700093554174,1791573182293703091
-0.9759784936904907,-0.7491519451141357,0.4927243262971107,1791573182323665701
0.07908594608306885,-0.5597283840179443,0.4866682883679483,1791573182353858781
-0.2943124771118164,0.6210105419158936,0.5127831217991992,1791573182383583199
0.9147703051567078,0.5511727333068848,0.5165257449656375,1791573182413549969
-0.5377932786941528,-0.8306040167808533,0.49126242726437497,1791573182443483872
0.5235478281974792,0.25394749641418457,0.47280677213483935,1791573182474372488
-0.04791450500488281,0.7377826571464539,0.44839608714114915,1791573182505806108
0.22764289379119873,-1.0629738569259644,0.5292785924893928,1791573182532346727
-0.3744676113128662,0.21921569108963013,0.48799232135618503,1791573182563274505
0.17622095346450806,1.230889916419983,0.47703320500976204,1791573182593153207
-0.14439088106155396,-0.7833015322685242,0.4754581316251382,1791573182622127762
-0.030519187450408936,-0.15695905685424805,0.4612176013181941,1791573182653089300
-0.4673207402229309,0.9179916977882385,0.49955282259192735,1791573182683099886
-0.07690662145614624,-0.7198837399482727,0.49852530693065794,1791573182713888688
0.3997563123703003,-0.035829782485961914,0.4096992721145124,1791573182746512412
-0.44652342796325684,0.7218010425567627,0.47566350274369956,1791573182772952623
0.33030951023101807,-0.38323110342025757,0.45733017135382154,1791573182802865816
-0.3486909866333008,0.0026415586471557617,0.4768818967521972,1791573182832768860
0.18710285425186157,0.7388765811920166,0.4800628063782689,1791573182862790886
-0.2634428143501282,-0.29308998584747314,0.43471237571536736,1791573182892744146
0.34333300590515137,-0.49370133876800537,0.4347214134507267,1791573182922896349
0.18807172775268555,0.7613606452941895,0.4469209529815867,1791573182953837275
-0.24103409051895142,-0.08546680212020874,0.3972615637587509,1791573182985836620
0.4103427529335022,-0.25778037309646606,0.47781828486481537,1791573183012827705
0.27527374029159546,0.6670176982879639,0.43675647613927193,1791573183042720584
-0.03133988380432129,-0.4201663136482239,0.43045230864301287,1791573183072627817
-0.4571130871772766,-0.16326576471328735,0.4406521537572455,1791573183102642207
0.05589091777801514,0.9402880668640137,0.43278343157386967,1791573183132551367
-0.48575443029403687,-0.5781049132347107,0.4304601705708118,1791573183162745739
-0.0389021635055542,-0.4431377053260803,0.4066803374515297,1791573183194362518
0.5335807204246521,1.0493186712265015,0.43872110923501517,1791573183225028168
-0.22106248140335083,-0.6296166181564331,0.4625126206642091,1791573183252497846
-0.3253079652786255,-0.23598384857177734,0.4066839637531263,1791573183282525669
0.7699084877967834,1.3239223957061768,0.3916982025270058,1791573183312482231
-0.04764062166213989,-0.5895418524742126,0.36237977450411546,1791573183342528608
0.27894341945648193,0.07295173406600952,0.38908482592044663,1791573183372438123
0.1642519235610962,0.6648499965667725,0.40736541604906895,1791573183402498656
-0.16289585828781128,-0.936539888381958,0.38257670926736537,1791573183433974285
0.9661815166473389,0.4799007773399353,0.39522645069176016,1791573183463911592
-0.4394746422767639,0.6604979038238525,0.396789994126595,1791573183492436884
0.5360152125358582,-0.7267825603485107,0.37749013596444847,1791573183522403579
-0.04143357276916504,0.2207653522491455,0.4086575601608849,1791573183551687511
-0.00628817081451416,0.4192257523536682,0.4133384432538213,1791573183581691769
-0.21043181419372559,-0.5338889360427856,0.40086848774784045,1791573183611610195
-0.2237665057182312,0.6762275099754333,0.37399514764689695,1791573183642339846
0.24982047080993652,0.09350079298019409,0.3447347579307155,1791573183673879205
-0.2565762400627136,-0.5738174319267273,0.40493717415146524,1791573183701530994
0.03966027498245239,0.6122483611106873,0.39615719826285406,1791573183731509797
-0.3196694850921631,-0.08843231201171875,0.415414257527187,1791573183761400995
0.2500055432319641,-0.1735808253288269,0.35898448013973505,1791573183791463932
-0.11559319496154785,-0.3175378441810608,0.35150980503634355,1791573183821362935
0.7023220062255859,0.6151657104492188,0.38846810528644676,1791573183850219214
-0.45819902420043945,-0.3115330934524536,0.3497996855905167,1791573183881955481
0.4038832187652588,-0.01566857099533081,0.32636755090397934,1791573183914774003
-0.21880501508712769,0.517785370349884,0.3816795234615143,1791573183941107372
0.35827672481536865,-0.42545562982559204,0.3436930992454138,1791573183970997815
0.058270275592803955,0.5109433531761169,0.3672018399388141,1791573184000960298
-0.14978069067001343,-0.14401179552078247,0.3711306986091276,1791573184031166631
0.02600198984146118,-0.13620460033416748,0.3937158491693354,1791573184060886954
-0.17815792560577393,0.7735393643379211,0.3798675795515919,1791573184090884031
-0.36615806818008423,-0.24038904905319214,0.3228597185134653,1791573184121918492
-0.14388859272003174,-0.3552188277244568,0.2968543117419878,1791573184154577243
0.6065400838851929,0.3373945951461792,0.4188410555901135,1791573184180718475
-1.1369638442993164,-0.43996042013168335,0.3608339774140266,1791573184210673529
0.3249998688697815,0.3568183183670044,0.36423136179368354,1791573184240564635
-0.1646714210510254,0.38472700119018555,0.31795035600768135,1791573184270574161
-0.09660851955413818,-1.0849355459213257,0.3104104144307661,1791573184300523299
0.18632495403289795,0.9352275729179382,0.3089717239806106,1791573184330813980
-0.6293163299560547,-0.21269184350967407,0.30934183976600704,1791573184362534628
1.4263842105865479,-0.3804660439491272,0.31717226127420833,1791573184393527370
-0.010154008865356445,1.274843454360962,0.32876540418731093,1791573184420607293
0.03452932834625244,-0.8149758577346802,0.308586710979053,1791573184449287641
-0.16731292009353638,0.5692051649093628,0.2732364382278826,1791573184473226730
0.37906062602996826,0.7177756428718567,0.36409148567121113,1791573184510209629
-0.1662796139717102,-0.5326992273330688,0.32604828784803597,1791573184540481225
-0.1051594614982605,0.4413014054298401,0.3163835136760015,1791573184570546629
0.2390308976173401,-0.01220780611038208,0.32053167862155696,1791573184602709225
-0.10670053958892822,-0.33759260177612305,0.35158858165531043,1791573184633278447
-0.16366922855377197,-0.09236228466033936,0.3784067010154925,1791573184669922986
-0.5321391224861145,0.4374297261238098,0.321438250704574,1791573184699885063
0.6240234971046448,-0.22760117053985596,0.31574813960204,1791573184730620939
-0.544927179813385,0.2087985873222351,0.30741638172261004,1791573184762089797
-0.12818509340286255,0.05011463165283203,0.33419956007077734,1791573184789807317
-0.10374724864959717,-0.23056823015213013,0.30334330495935163,1791573184819702274
0.009526073932647705,0.46466493606567383,0.31228022435579916,1791573184849640942
0.03304731845855713,-0.27665650844573975,0.3184910864044076,1791573184879578894
0.19195681810379028,0.10997480154037476,0.2900679996145508,1791573184909579532
0.5039704442024231,0.2528306245803833,0.3072706045046661,1791573184939521262
-0.447564959526062,-0.538083016872406,0.2826420223821234,1791573184970217700
0.23717713356018066,0.5884280800819397,0.2730757558519693,1791573185002412867
-0.28329092264175415,0.06823509931564331,0.3256206086862862,1791573185029463856
0.9868075251579285,-0.2986796498298645,0.3222645600850898,1791573185058294861
0.5709269642829895,0.4493664503097534,0.31869700880210616,1791573185089281490
-0.012211740016937256,-0.3348286747932434,0.27745204565873055,1791573185119343683
0.34790390729904175,0.01275932788848877,0.2998148918702751,1791573185149165937
-0.06763434410095215,0.744330644607544,0.2968325356130262,1791573185179228985
-0.2714194059371948,-0.1472800374031067,0.2661035664716058,1791573185210255152
-0.20737510919570923,-0.3506683111190796,0.2785856339660528,1791573185242731637
-0.07644492387771606,0.7164270281791687,0.33381361535096,1791573185269098996
-0.2399693727493286,-0.5715283155441284,0.294606557609714,1791573185298965157
0.8637053966522217,0.3176114559173584,0.3118965410099133,1791573185328870794
-0.18598604202270508,0.3381996750831604,0.27615335332663393,1791573185358862369
0.10593056678771973,-0.502391517162323,0.260886033856916,1791573185388819426
-0.3856988549232483,0.4407082796096802,0.2950138439858,1791573185418765964
0.562467634677887,-0.06059914827346802,0.2650604845057835,1791573185450395885
0.1581284999847412,-0.09040087461471558,0.27567410165343065,1791573185481693493
-0.5438327789306641,0.439031720161438,0.30937871491477326,1791573185508652901
0.27809250354766846,-0.2393220067024231,0.2852654370164711,1791573185538653120
-0.5632681846618652,0.3342934846878052,0.2542405669030829,1791573185561521793
0.6280187368392944,-0.09837818145751953,0.3009377102830896,1791573185598501476
-0.3464721441268921,-0.2509285807609558,0.28157984726887997,1791573185628652682
0.22831594944000244,0.5372500419616699,0.26825302513055466,1791573185658434695
-0.1826511025428772,0.00789332389831543,0.23421009299719855,1791573185689694053
0.17279160022735596,-0.1348971724510193,0.26481091254472927,1791573185720428204
-0.07786023616790771,0.22812426090240479,0.3301999624642487,1791573185758247255
-0.06963086128234863,-0.2136601209640503,0.2789905775473888,1791573185788183397
-0.3527262806892395,0.2033097743988037,0.26282146575987597,1791573185818767414
-0.09541374444961548,0.4518088698387146,0.24198502106571662,1791573185849327427
0.047583937644958496,-0.6966263055801392,0.24354977438002468,1791573185880153055
-0.23305177688598633,0.12253713607788086,0.25831674804063476,1791573185917993699
-0.15525555610656738,0.4917389154434204,0.24539208095999532,1791573185947915649
-0.4910869002342224,-0.4772898554801941,0.2478272592509621,1791573185978236357
1.661366581916809,0.3326696753501892,0.2523362360991394,1791573186010753711
-0.6770310401916504,0.08067095279693604,0.2714962173408537,1791573186037841777
0.616036593914032,-0.3980848789215088,0.236712645909751,1791573186067740525
-0.3829454183578491,0.5730804204940796,0.24726678263230037,1791573186097719472
0.2586236596107483,-0.422715425491333,0.26393730032656915,1791573186127655744
-0.3257375955581665,0.3656579256057739,0.29106461708984926,1791573186157592983
0.026876449584960938,-0.021863281726837158,0.2876423802893469,1791573186187626029
0.021015286445617676,-0.2379378080368042,0.2540477055655089,1791573186218037439
-0.08066439628601074,0.5399969220161438,0.2318271850976124,1791573186250261278
-0.13721996545791626,-0.5046051740646362,0.281812674960595,1791573186277466824
-0.599583625793457,0.35608720779418945,0.26240846234384363,1791573186307372796
0.48596322536468506,0.1423431634902954,0.26116281330241237,1791573186336317058
-0.43758881092071533,-0.3634263277053833,0.22142733711128398,1791573186366298889
-0.1408708095550537,0.2815600633621216,0.23221734290230223,1791573186397531489
0.09359365701675415,-0.1065635085105896,0.2717589527938505,1791573186427170646
-0.5792167782783508,0.22118979692459106,0.2573836169543939,1791573186458468427
0.06845682859420776,0.11480236053466797,0.23606583222995764,1791573186490266849
-0.12995660305023193,-0.2339709997177124,0.2260705219596379,1791573186517109638
0.30709630250930786,-0.06211811304092407,0.2178454757372934,1791573186547038132
-0.10247796773910522,0.24912869930267334,0.21471186206479934,1791573186577678058
0.27775198221206665,-0.08444321155548096,0.23953199963461175,1791573186607626250
0.4282434582710266,0.24845755100250244,0.2561994886538865,1791573186637697769
-0.04186081886291504,-0.27348792552948,0.24587813233344816,1791573186667603439
-0.5340797305107117,0.09234809875488281,0.2332917540505193,1791573186698058071
0.3749145269393921,0.10236024856567383,0.23906104200777586,1791573186728927684
-0.27867668867111206,-0.2613641023635864,0.24954671815509671,1791573186756698952
0.02020406723022461,0.6132383346557617,0.21310233302885587,1791573186786638639
-0.07775449752807617,-0.08999735116958618,0.23658365702981166,1791573186816633236
-0.4138253331184387,-0.21906006336212158,0.26403694187295,1791573186846598058
0.003288745880126953,0.3414950370788574,0.2668590324591947,1791573186876518096
-0.19547128677368164,-0.19126659631729126,0.22372625006240868,1791573186906497249
0.46235114336013794,0.07770997285842896,0.21658192945234023,1791573186938410181
-0.3309008479118347,0.066139817237854,0.20476683801884796,1791573186968284466
0.5141331553459167,-0.04940986633300781,0.20590516853376245,1791573186996358962
-1.0941343307495117,0.16903609037399292,0.2339900722456144,1791573187026247663
0.7178270816802979,-0.20667195320129395,0.24622545888458391,1791573187056348987
-0.1660286784172058,0.32090747356414795,0.23732004319685918,1791573187086199534
0.30376094579696655,-0.2514805197715759,0.2221682355502587,1791573187116120009
-0.08206522464752197,0.10245990753173828,0.19299954256513333,1791573187146107574
-0.34408044815063477,0.04956930875778198,0.17912526446504504,1791573187177324088
0.6597002148628235,-0.3497025966644287,0.19325834554797744,1791573187206055486
0.003710508346557617,0.4775787591934204,0.24591777686327168,1791573187235916019
-0.32457274198532104,-0.3180810213088989,0.2422003019322811,1791573187265886988
0.3503415584564209,0.027177512645721436,0.2542038929984,1791573187295902923
0.21875667572021484,0.35710519552230835,0.24715218503751474,1791573187325782837
0.1163567304611206,-0.27747517824172974,0.20540468542170812,1791573187355929451
-0.12912654876708984,0.22463184595108032,0.22485807918882142,1791573187386103854
0.31464725732803345,0.021092593669891357,0.2024822033796247,1791573187418543893
0.22360408306121826,-0.028061211109161377,0.25204521142852543,1791573187445763904
0.23995548486709595,0.22034168243408203,0.23899412406663406,1791573187475557406
-0.05816537141799927,-0.10422879457473755,0.21343507483924187,1791573187505555041
0.43045979738235474,0.07734185457229614,0.19657905828395345,1791573187535478347
-0.05695044994354248,-0.03808170557022095,0.2018438906069517,1791573187565417682
-0.4697573781013489,0.08904749155044556,0.19720374153993114,1791573187595389591
0.37475597858428955,0.11743128299713135,0.20745078506023237,1791573187626865387
-0.565207302570343,-0.028748929500579834,0.21402942189642646,1791573187658124622
0.39407169818878174,0.07376426458358765,0.25407848107818426,1791573187685247397
-0.1405617594718933,-0.2930225133895874,0.25069920172200194,1791573187715218168
0.6930777430534363,0.343536376953125,0.22523673226529653,1791573187745178922
-0.3262736201286316,-0.13842612504959106,0.22216635448655567,1791573187775101084
0.1543424129486084,-0.07753390073776245,0.19425799801329888,1791573187805085272
-0.4552009701728821,0.19317805767059326,0.21808201835941446,1791573187835008456
-0.21840226650238037,-0.16942495107650757,0.20907043040786275,1791573187867240022
-0.08548688888549805,0.07910990715026855,0.20498520967619366,1791573187898144750
-0.2893136739730835,0.07724761962890625,0.252885802739285,1791573187924917345
0.4503159523010254,-0.39745426177978516,0.2079272587381056,1791573187954821068
-0.5752183794975281,0.5175429582595825,0.19317782729299457,1791573187984865796
0.05971872806549072,-0.36012887954711914,0.19548652022921997,1791573188014824998
-0.18968194723129272,-0.10409390926361084,0.1920482866118291,1791573188044911898
0.06782668828964233,0.3255857229232788,0.18937741614090287,1791573188074744815
-0.4562007188796997,-0.3905596137046814,0.18282389394902238,1791573188106120688
1.0979987382888794,0.2785828709602356,0.2080958026726047,1791573188137041474
-0.7430539131164551,0.11151963472366333,0.2245026395313783,1791573188164480138
0.6137334108352661,-0.3423553705215454,0.19286002992498769,1791573188194437182
0.062210798263549805,0.3965665102005005,0.1891979393009461,1791573188224355933
0.22005349397659302,-0.4648248553276062,0.18396766439231707,1791573188254381302
-0.11345499753952026,0.599967360496521,0.20969124913173665,1791573188283498210
-0.5789943933486938,-0.17348915338516235,0.1973837718872914,1791573188314652990
0.6869902610778809,-0.30054235458374023,0.19630623977712985,1791573188346645743
-0.44998663663864136,0.4315193295478821,0.2162504104944343,1791573188376189500
0.8565599322319031,-0.41043221950531006,0.22195142354159778,1791573188403291132
-0.32398366928100586,0.12489712238311768,0.2034131959016273,1791573188434069241
0.026450932025909424,0.13543397188186646,0.22020883838125735,1791573188464016055
-0.4101541042327881,-0.06989312171936035,0.20087455897682932,1791573188493964717
0.2078806757926941,-0.04093122482299805,0.19149931529989775,1791573188524072633
-0.24247479438781738,0.007212817668914795,0.18768256427831462,1791573188554236123
0.34424448013305664,0.16972142457962036,0.20502324117672596,1791573188586175810
-0.22242218255996704,0.018163084983825684,0.19205196586840492,1791573188613846648
-0.18866568803787231,-0.1702548861503601,0.19210511993710544,1791573188643726345
-0.03747051954269409,0.16690325736999512,0.19728879840687258,1791573188673677463
-0.17990320920944214,-0.11766541004180908,0.19772151681048353,1791573188703785661
-0.09257596731185913,0.19707661867141724,0.20117974075264242,1791573188733609680
-0.0021176934242248535,-0.20018744468688965,0.17686543075906105,1791573188764236938
-0.0783194899559021,0.1778186559677124,0.1975591404696145,1791573188793211315
0.2194487452507019,0.11470985412597656,0.15960275822042577,1791573188826617754
-0.25565052032470703,-0.3485216498374939,0.22142144318459764,1791573188853497354
0.024885892868041992,0.1960538625717163,0.20411990290487708,1791573188883465015
0.08199262619018555,-0.0052315592765808105,0.16449931970201317,1791573188906429403
-0.27719998359680176,0.11002606153488159,0.2191466563613035,1791573188933392166
0.22463637590408325,-0.1440468430519104,0.20633320231354352,1791573188963256423
-0.15163350105285645,0.3990541696548462,0.1873280751310828,1791573188993179126
0.08486950397491455,-0.24567550420761108,0.1904802087947276,1791573189023201040
-0.5635758638381958,-0.07394635677337646,0.19691131921081007,1791573189053096843
-0.0073081254959106445,0.18944919109344482,0.19262658324722723,1791573189083164347
-0.11881452798843384,-0.2953473925590515,0.17743629535124167,1791573189114197790
0.21275120973587036,0.6115397214889526,0.16933683745083628,1791573189146597226
-0.1872776746749878,-0.29733729362487793,0.20179749559069438,1791573189173110735
-0.3308432102203369,0.18963617086410522,0.20073519364226525,1791573189203074244
0.2655649781227112,0.03727501630783081,0.17743696659869088,1791573189233028980
-0.40178829431533813,-0.2482222318649292,0.15236634354240433,1791573189263165042
0.3443537950515747,0.5002113580703735,0.1847283885053809,1791573189292934234
-0.4445534944534302,-0.3596506118774414,0.1813908192135467,1791573189322954408
1.0532418489456177,0.01803988218307495,0.15040025825231465,1791573189354368589
-0.3233872056007385,0.24118220806121826,0.1673034499903479,1791573189385125715
0.5367185473442078,-0.14587807655334473,0.20967352292656774,1791573189412997108
-0.22350001335144043,0.09526032209396362,0.18475047154979204,1791573189443053422
0.42478716373443604,-0.18446600437164307,0.19065804981302786,1791573189473004781
-0.37219685316085815,0.45971447229385376,0.16124831228099737,1791573189503001118
-0.04213613271713257,-0.07717621326446533,0.14906333067881822,1791573189532839821
0.1711481213569641,-0.2471470832824707,0.19090930454408603,1791573189562958874
-0.030671775341033936,0.3289828300476074,0.21698915259941068,1791573189594674948
-0.3835003972053528,-0.2578226923942566,0.17619335855486576,1791573189624331993
0.2112073302268982,0.06992119550704956,0.17137789082896676,1791573189652801298
-0.174474835395813,0.1029667854309082,0.1573784228595958,1791573189682835459
0.033911705017089844,-0.16690480709075928,0.17015103971721526,1791573189712792442
-0.4808639883995056,0.3142697811126709,0.17810795763557372,1791573189742037501
0.1578473448753357,-0.14066976308822632,0.18629960898444156,1791573189771990825
-0.20164340734481812,0.28099143505096436,0.1901506998623138,1791573189802650777
0.5767465233802795,-0.28183460235595703,0.17654782221495302,1791573189834262592
-0.800775408744812,0.11580127477645874,0.18158922475840458,1791573189861871734
0.2827255129814148,-0.004551708698272705,0.166717897675655,1791573189891847834
-0.06798136234283447,-0.10300153493881226,0.16528702199145448,1791573189921727780
0.06595748662948608,0.23684656620025635,0.18254142609740542,1791573189951689536
-0.2751172184944153,-0.09891670942306519,0.1838514631790008,1791573189981698823
-0.1604093313217163,0.3137120008468628,0.1839693111497922,1791573190011661294
0.13225066661834717,-0.016383111476898193,0.17059321391405183,1791573190043001952
-0.2987004518508911,-0.22198712825775146,0.1427315508371408,1791573190074266900
0.22923243045806885,0.2422776222229004,0.1819900675508919,1791573190101484274
-0.40327417850494385,-0.22046935558319092,0.1799364649896661,1791573190131446810
1.091124176979065,0.4499189257621765,0.1916101858948465,1791573190161363809
-0.48589837551116943,-0.14470601081848145,0.1826476482935238,1791573190191544408
0.20950543880462646,-0.06289362907409668,0.19905523097112965,1791573190221263017
-0.05315488576889038,0.2799946665763855,0.17525027056796527,1791573190250325006
0.6677104234695435,-0.36447370052337646,0.14264341697169158,1791573190281306527
0.10361003875732422,0.6780294179916382,0.14292688661213823,1791573190314632106
-0.26566416025161743,-0.4598534107208252,0.19449410663821365,1791573190341148956
0.3628387451171875,0.04076075553894043,0.19104579529655757,1791573190371051345
-0.36186063289642334,0.20834505558013916,0.19104230607515435,1791573190400962726
0.7772329449653625,-0.26440930366516113,0.17907934196437883,1791573190431006482
-0.062037765979766846,0.09098994731903076,0.1802440201201499,1791573190460915877
0.22037702798843384,-0.0014609694480895996,0.17263031283960004,1791573190490852044
-0.15047955513000488,0.21924316883087158,0.15117409080538222,1791573190522610803
0.004160106182098389,-0.08903354406356812,0.13869883876137823,1791573190553894489
0.008471488952636719,0.05134880542755127,0.1735331431197875,1791573190580790813
-0.3624648451805115,0.059208452701568604,0.1776477288016296,1791573190610687161
0.46483105421066284,-0.04521077871322632,0.18946046948721704,1791573190640570889
-0.3876904249191284,0.1999591588973999,0.17861760261011733,1791573190670600303
0.040844500064849854,-0.19117599725723267,0.13507220841672876,1791573190700518505
-0.30263787508010864,-0.1446273922920227,0.14265967773769592,1791573190730526862
-0.20338332653045654,0.05844736099243164,0.1413978653806913,1791573190762600426
0.20071899890899658,0.13375651836395264,0.1526727409669534,1791573190791333307
0.16007471084594727,0.11512547731399536,0.1654254768714133,1791573190830401916
-0.339474081993103,0.11132144927978516,0.17782601831221287,1791573190860544045
0.4942576289176941,-0.1633903980255127,0.16483107727390262,1791573190891174868
-0.4140911102294922,0.18491393327713013,0.14945605689419567,1791573190922373533
0.10937517881393433,-0.273909330368042,0.14891786642768196,1791573190950207056
-0.27607059478759766,0.23201721906661987,0.14212867411931368,1791573190980080517
-0.23305541276931763,-0.09833979606628418,0.13303904476810463,1791573191010065098
0.16591644287109375,-0.13622385263442993,0.17296408911474853,1791573191039970561
-0.1285022497177124,0.3431205749511719,0.2155544744407344,1791573191069990986
0.047236502170562744,-0.2522326111793518,0.1598783524647543,1791573191099918397
-0.031271517276763916,0.0083504319190979,0.14437790107213924,1791573191131047668
-0.27956676483154297,-0.18112868070602417,0.15716623223262766,1791573191162700204
0.27648913860321045,0.00575411319732666,0.1569991444924645,1791573191189827198
-0.7693747282028198,0.1342710256576538,0.15988509340288154,1791573191219695954
0.4694318175315857,-0.3102937340736389,0.15745452466032162,1791573191249710438
-0.16170775890350342,0.36549878120422363,0.16905236024985962,1791573191279583169
-0.012692272663116455,-0.32958000898361206,0.13653744152670527,1791573191309588088
-0.30185800790786743,0.3877449631690979,0.14591502755547378,1791573191339571611
0.33319664001464844,-0.020383238792419434,0.1350209764413095,1791573191370565798
0.1703270673751831,-0.2720292806625366,0.12828175739901954,1791573191402405711
-0.2105463147163391,0.2506650686264038,0.1715535591693871,1791573191429458203
0.449962317943573,-0.11200940608978271,0.1604032657165602,1791573191459355235
-0.7090077996253967,0.07573610544204712,0.17178154486156205,1791573191488299261
0.8323729634284973,-0.16937124729156494,0.15950013795912152,1791573191518293261
-0.32330626249313354,0.43766921758651733,0.11760761746319214,1791573191549235069
0.6145837306976318,0.004451096057891846,0.11553427261002253,1791573191579151739
-0.30937933921813965,-0.16456735134124756,0.1468917318855448,1791573191610533348
0.20394033193588257,0.15156298875808716,0.15488411599054783,1791573191642350680
0.09645497798919678,0.0716661810874939,0.19823541437151235,1791573191669088607
-0.14776760339736938,0.1082039475440979,0.17596373695960058,1791573191698994769
0.14020466804504395,0.03869068622589111,0.13534076088316996,1791573191729010021
-0.13210004568099976,-0.23207759857177734,0.13623980259160676,1791573191758912037
0.6991118788719177,-0.01075214147567749,0.16160669566402588,1791573191788878805
-0.21724218130111694,0.3262571692466736,0.15898983295866856,1791573191818842074
-0.18758320808410645,0.1292647123336792,0.14473598823673384,1791573191850614570
0.1461169719696045,-0.31246471405029297,0.1633129056806017,1791573191881670024
0.011062800884246826,0.051762938499450684,0.15319330560600236,1791573191918623023
-0.355323851108551,-0.052718937397003174,0.14712341819055982,1791573191948620035
0.07024252414703369,0.035466790199279785,0.12833407313522727,1791573191978582608
0.1454499363899231,0.09736084938049316,0.12395061444890945,1791573192010799695
-0.8872317671775818,-0.25870537757873535,0.12212638455740966,1791573192040441980
0.859580397605896,-0.09798210859298706,0.14735170661275773,1791573192078400937
-0.46329647302627563,0.30536431074142456,0.11913053618733639,1791573192108360145
1.0090728998184204,-0.14176148176193237,0.11677878875182542,1791573192137328258
-0.39562052488327026,0.17994379997253418,0.1095968511851651,1791573192170585007
0.44749218225479126,-0.17797982692718506,0.15638160600854883,1791573192198246260
0.044759392738342285,0.027178406715393066,0.1580491628306706,1791573192228222042
-0.3629452586174011,-0.0499306321144104,0.15930051866851513,1791573192258185775
-0.4575984477996826,-0.3601186275482178,0.15586258032346578,1791573192288239719
0.29853880405426025,0.30493152141571045,0.15257142600070164,1791573192318068316
-0.5665205717086792,-0.17329055070877075,0.12331617762939448,1791573192348049287
0.03728395700454712,0.23784035444259644,0.15613812945712546,1791573192378414092
0.10165232419967651,0.22129350900650024,0.1343592933333489,1791573192411015118
-0.4933285713195801,-0.3374147415161133,0.15675584629749859,1791573192437848117
-0.13802886009216309,0.12329065799713135,0.15177970850799097,1791573192467760273
-0.15105080604553223,-0.10609221458435059,0.1424859092913496,1791573192496719805
0.3698747158050537,-0.05830007791519165,0.1156050465734912,1791573192527685531
-0.3355715274810791,-0.07281672954559326,0.1326750428587347,1791573192557869814
-0.008624255657196045,0.25894325971603394,0.13539886340850205,1791573192587635068
-0.031642377376556396,-0.01745927333831787,0.13167801872348886,1791573192618438283
-0.6200446486473083,-0.10250258445739746,0.13506553160719165,1791573192650651195
0.883070170879364,0.10734915733337402,0.17055676821226054,1791573192677426380
-0.7934203147888184,-0.0002490878105163574,0.13494823924553878,1791573192707384875
0.8980377912521362,0.11058646440505981,0.13309762406270711,1791573192736303349
-0.3055548071861267,0.009647965431213379,0.13273159506663335,1791573192766314411
0.23215174674987793,-0.0868370532989502,0.12676381797272665,1791573192797234179
-0.29324012994766235,0.002246081829071045,0.16493167990299246,1791573192826310829
-0.20979148149490356,0.009965360164642334,0.14777308750280826,1791573192858980469
0.3875662088394165,0.32947278022766113,0.14527107968643455,1791573192889724595
0.06688123941421509,-0.28667062520980835,0.1529622043021052,1791573192917052631
0.4313012361526489,0.11920350790023804,0.1283254020099972,1791573192947051377
-0.5050534605979919,-0.19075268507003784,0.13600833117749148,1791573192976966375
0.7146178483963013,0.21225082874298096,0.12428444030734725,1791573193006956620
-0.003529787063598633,0.1059870719909668,0.12100127242828433,1791573193036889388
-0.4454020857810974,-0.14768028259277344,0.10874854801563279,1791573193066879054
0.27313685417175293,0.2198006510734558,0.1360124151749739,1791573193098460562
0.10271590948104858,-0.08752942085266113,0.15910803756155947,1791573193128670426
1.1012163162231445,0.09945148229598999,0.14203991023067605,1791573193156819685
-0.3093014359474182,0.003215491771697998,0.12495457459461853,1791573193186616899
0.36728763580322266,-0.14725834131240845,0.12222086622221895,1791573193216600829
-0.5651228427886963,0.20697486400604248,0.13451245681039886,1791573193246609480
0.7284421920776367,-0.2657598853111267,0.1365201137010198,1791573193276762258
0.06184464693069458,0.24631363153457642,0.14423538066370464,1791573193306882872
0.03302127122879028,-0.3131628632545471,0.11058491250671239,1791573193338923790
0.045002758502960205,0.10827744007110596,0.11662415120818401,1791573193366938139
-0.3147355318069458,-0.30603277683258057,0.1084674909115454,1791573193396375100
0.5186616778373718,0.32510918378829956,0.12552561370157586,1791573193426360196
-0.7100300788879395,0.1242837905883789,0.12339360951341762,1791573193456661498
0.4494955539703369,-0.16335272789001465,0.13032210999182092,1791573193486243369
-0.3383430242538452,0.1384221911430359,0.17801770275552078,1791573193516345333
0.5313491225242615,-0.10315346717834473,0.15443585622934383,1791573193546568662
-0.506046712398529,-0.01887810230255127,0.13768999761823453,1791573193578782873
0.0679742693901062,-0.07137632369995117,0.14842169952815434,1791573193606186704
0.1423296332359314,0.08606940507888794,0.09487114819359227,1791573193636024266
-0.42859476804733276,0.012198865413665771,0.10532484704855825,1791573193665971618
0.17993658781051636,-0.003906071186065674,0.13666354085476462,1791573193696166251
0.04364442825317383,0.09281659126281738,0.14806969564497663,1791573193726005848
-0.05970996618270874,-0.17826151847839355,0.12866263523316326,1791573193754821282
0.0007176995277404785,0.1696980595588684,0.10809051298710005,1791573193786366727
0.5861878991127014,0.13734835386276245,0.11133230810922638,1791573193818891793
-0.11876362562179565,-0.20352405309677124,0.14584276324986492,1791573193845730623
0.20413726568222046,0.05132943391799927,0.1347852976376528,1791573193875600280
0.05173438787460327,-0.08581078052520752,0.15035935770227113,1791573193905587973
0.06789040565490723,0.3858410716056824,0.1318755584336904,1791573193935549618
0.6061009764671326,-0.19316911697387695,0.1319927939156506,1791573193965475849
-0.4921225905418396,0.005594372749328613,0.11999876121796478,1791573193995403848
0.25801509618759155,-0.003746628761291504,0.12945516597545037,1791573194026781634
-0.1212313175201416,0.09853166341781616,0.12476371247780188,1791573194058716120
0.7314460277557373,0.13267147541046143,0.1710625026056215,1791573194084324315
-0.30936503410339355,-0.12484055757522583,0.12479222822004511,1791573194115206753
0.26234519481658936,0.06533616781234741,0.12423830024487739,1791573194145187360
-0.3412647843360901,-0.01981663703918457,0.11924133565318508,1791573194175166342
-0.11530381441116333,-0.00750422477722168,0.1201915945136506,1791573194205098210
-0.034178733825683594,0.13699257373809814,0.11100031210586918,1791573194235072038
-0.2753002643585205,-0.1553693413734436,0.11290870124367015,1791573194266971362
0.29634153842926025,0.22068196535110474,0.13787894908359144,1791573194297689459
-0.3042351007461548,-0.11559289693832397,0.132783781880382,1791573194324873344
0.14713865518569946,0.20655113458633423,0.1186368987739258,1791573194354780172
-0.3678865432739258,-0.33387643098831177,0.10795560624677683,1791573194384810679
-0.3203245997428894,0.2035999298095703,0.10429390589723299,1791573194414788579
0.27342069149017334,-0.022603094577789307,0.12662695432217191,1791573194444689070
-0.6898688673973083,-0.2748551368713379,0.12767600809908725,1791573194474765017
0.6334366798400879,0.4194101095199585,0.13009011009809476,1791573194506517445
-0.6417646408081055,-0.2576711177825928,0.08956367459820444,1791573194536479042
0.5427705645561218,0.1391095519065857,0.12108197431624466,1791573194564512552
-0.3941940665245056,0.02474135160446167,0.11177857960035632,1791573194594438577
-0.07943105697631836,-0.03138846158981323,0.11741605848850392,1791573194624375541
-0.4076998829841614,0.05678516626358032,0.1422825993381756,1791573194654370502
-0.09007281064987183,0.10923665761947632,0.1361168860018838,1791573194684349895
0.05870121717453003,-0.16668736934661865,0.12888850918679118,1791573194715009831
-0.28249436616897583,-0.11051720380783081,0.12886386820354198,1791573194746524520
0.1495690941810608,0.18781763315200806,0.11249138927500078,1791573194774271687
-0.08579319715499878,-0.28560638427734375,0.1324608173121732,1791573194804105310
-0.05824124813079834,0.45453548431396484,0.12387680582425387,1791573194834084032
0.05169421434402466,-0.05339008569717407,0.11649333666987825,1791573194864068704
-0.5402340888977051,-0.22893160581588745,0.1239954886734941,1791573194893974374
0.6265885829925537,0.22103804349899292,0.13232522429459181,1791573194923960313
-0.30515456199645996,-0.08114063739776611,0.08072803818671524,1791573194954555104
0.47621411085128784,0.2573810815811157,0.0942813654213618,1791573194986608191
-0.6478089094161987,-0.10883402824401855,0.1162419714205382,1791573195013886987
0.5607104897499084,0.10438519716262817,0.11522251717142164,1791573195043814138
-0.2387109398841858,-0.17964637279510498,0.16530016972280745,1791573195073758269
0.7939783930778503,-0.15396523475646973,0.15990083525001034,1791573195103856646
-0.15721452236175537,0.3352634310722351,0.1242678004145677,1791573195133722665
0.6801770329475403,-0.4295588731765747,0.1111419815559288,1791573195163733583
-0.2949482202529907,0.1771647334098816,0.11223735166337799,1791573195194541343
-0.43603986501693726,-0.04362595081329346,0.09417306818316001,1791573195227247761
0.41606563329696655,-0.18591487407684326,0.1352662091632835,1791573195253638323
-0.5653271079063416,0.11202448606491089,0.1409416949991957,1791573195283543918
0.568599283695221,-0.28873032331466675,0.13861311283073124,1791573195313506115
-0.06654947996139526,0.2567831873893738,0.11471466883151414,1791573195343537813
0.0016384720802307129,-0.227139413356781,0.07497699234431872,1791573195373459847
-0.1482207179069519,0.08778226375579834,0.09522880915667839,1791573195403568277
-0.130068838596344,0.01717895269393921,0.08897736028573246,1791573195434633540
0.23102730512619019,-0.10504961013793945,0.10641002236496544,1791573195465763927
-0.6593683362007141,0.008694291114807129,0.13544612172454612,1791573195493457760
1.2076200246810913,-0.01442563533782959,0.1472834551789292,1791573195522373522
-0.8310562968254089,0.3420943021774292,0.11038825100159483,1791573195553266776
0.7527877688407898,-0.36148470640182495,0.10217552623785255,1791573195583275357
-0.27160096168518066,0.13890552520751953,0.12240264478736317,1791573195612391442
0.1663568615913391,-0.11619925498962402,0.10985863006753548,1791573195643346927
-0.21289724111557007,-0.08311349153518677,0.12329803387674228,1791573195674306647
-0.2838137745857239,0.08468204736709595,0.14395456483269634,1791573195704955611
0.3960552215576172,0.07206904888153076,0.11773897231781157,1791573195733195276
0.07154345512390137,-0.013236463069915771,0.12157746788114049,1791573195763246042
0.06194865703582764,0.046576619148254395,0.10839005593314957,1791573195793140158
0.10577553510665894,-0.08904165029525757,0.11771235555788995,1791573195823193558
0.03927820920944214,-0.008308827877044678,0.11027861074365605,1791573195853103024
0.34538793563842773,0.09152394533157349,0.11728547506981388,1791573195883169679
-0.28704404830932617,-0.10909277200698853,0.10272482957873018,1791573195914872598
0.48094266653060913,-0.0008745789527893066,0.13745068202039362,1791573195942501424
-0.23760712146759033,0.19259369373321533,0.11198903724997318,1791573195971297793
1.2396986484527588,0.04925215244293213,0.09032867331833193,1791573196002346013
-0.40182167291641235,0.1904035210609436,0.10161770213877676,1791573196031307826
0.39834100008010864,-0.12481260299682617,0.08708045159202554,1791573196062216693
-0.23670893907546997,0.07717680931091309,0.0980069216410182,1791573196092144728
0.20688503980636597,-0.18398773670196533,0.11002195506447035,1791573196123136886
0.35487526655197144,0.09530967473983765,0.11941885078909112,1791573196154804804
-0.06255286931991577,0.07913476228713989,0.14726400605841766,1791573196181997232
0.2542418837547302,-0.07115483283996582,0.12578196847579026,1791573196210964065
-0.01060795783996582,0.11226671934127808,0.12470866914722557,1791573196241875369
0.20025306940078735,-0.17330294847488403,0.1167054305078112,1791573196271820619
-0.24097132682800293,0.19455766677856445,0.13492435024960606,1791573196301815925
-0.029871881008148193,-0.15407013893127441,0.10413071511844925,1791573196331760667
0.28016358613967896,-0.029210031032562256,0.09929176903361953,1791573196362952657
-0.023273110389709473,0.05837732553482056,0.1177606901481587,1791573196394743597
0.123410165309906,-0.18719184398651123,0.11706845753459388,1791573196421649377
-0.5182842016220093,0.22659826278686523,0.11996071969420671,1791573196451578581
0.6404173374176025,-0.22925496101379395,0.10422890744582608,1791573196481542394
-0.5572938919067383,0.07877570390701294,0.09347585060650446,1791573196511612028
0.3464934229850769,0.047193050384521484,0.11002023612414916,1791573196541454400
-0.4902953505516052,-0.1170501708984375,0.11418304343158761,1791573196571416603
0.5618565678596497,0.2775523066520691,0.1056885431518068,1791573196602862173
-0.392048180103302,-0.14346522092819214,0.08832766576722818,1791573196634627304
0.32858985662460327,-0.0030144453048706055,0.10983544013273093,1791573196660297344
-0.2451189160346985,0.011139214038848877,0.0753591095995056,1791573196691180046
0.40821975469589233,-0.04811882972717285,0.11857832994465847,1791573196721107821
-0.3279523253440857,-0.06072402000427246,0.1049292242002219,1791573196751133151
-0.18082445859909058,0.20246773958206177,0.09556516776729827,1791573196781033287
0.32932281494140625,0.200006902217865,0.08213113813952669,1791573196809996652
-0.221235990524292,-0.3113534450531006,0.08387609620386446,1791573196842998065
0.1415422558784485,-0.008034586906433105,0.10274094010331855,1791573196873543251
0.0064400434494018555,0.11124753952026367,0.16334325260252786,1791573196900823409
0.2884054183959961,0.15088427066802979,0.12396873598945274,1791573196930813021
0.14615660905838013,-0.08323442935943604,0.09972529440745391,1791573196960737478
-0.4128625988960266,0.018568873405456543,0.08823967509988508,1791573196990726864
0.238977313041687,-0.07255631685256958,0.09699914377360971,1791573197020671451
-0.43052417039871216,0.10632681846618652,0.08984437647718169,1791573197051016288
0.8303146362304688,0.160405695438385,0.0906590523200551,1791573197083151896
-0.5159739255905151,-0.2606127858161926,0.15252275148229402,1791573197110560264
0.8076573610305786,0.2770380973815918,0.12708659547896106,1791573197140468798
-0.3284079432487488,-0.250153124332428,0.08410656192218027,1791573197170418443
0.23279374837875366,0.06947201490402222,0.08700688289235704,1791573197200385955
-0.04385638236999512,-0.03687769174575806,0.08008701367881925,1791573197230371058
-0.42196059226989746,0.17504823207855225,0.0797518216634318,1791573197259288051
0.39084506034851074,0.05306696891784668,0.08230850930914899,1791573197290756490
-0.19024699926376343,-0.19404083490371704,0.11135180733298809,1791573197322771543
0.499247670173645,0.38767939805984497,0.11499036818343916,1791573197350196127
-0.16331982612609863,-0.12813323736190796,0.09148243637791369,1791573197380101513
-0.18071818351745605,-0.01472097635269165,0.09252985591279257,1791573197410068796
-0.19881856441497803,-0.17981237173080444,0.13323038827870848,1791573197439968148
-0.42582017183303833,0.3446199297904968,0.13792965331198356,1791573197470007995
0.6245078444480896,-0.05101478099822998,0.14166574931610135,1791573197499992893
-0.6885285377502441,-0.08810544013977051,0.10045852500356678,1791573197531568425
0.6111668348312378,0.13062483072280884,0.09784916857046735,1791573197562765555
-0.47587352991104126,-0.07994025945663452,0.09749723728003643,1791573197589858174
-0.3501797914505005,0.0997118353843689,0.09743962314530864,1791573197619726896
-0.6208356022834778,-0.08534139394760132,0.10858020064371281,1791573197649715970
-0.17333602905273438,0.14870667457580566,0.09869126634541085,1791573197679632394
0.4617353081703186,-0.20518726110458374,0.1258639481996279,1791573197709594292
-0.5395887494087219,0.014045774936676025,0.12574722098054072,1791573197739591172
0.25741076469421387,0.02675783634185791,0.10039410534746777,1791573197770863541
-0.5263060927391052,-0.25240880250930786,0.09045157160888041,1791573197802414392
0.243033766746521,0.24215620756149292,0.1034381536194666,1791573197839496152
-0.4382038116455078,-0.010554492473602295,0.07100753144564946,1791573197869432482
0.7566463947296143,-0.17059367895126343,0.09794899947761004,1791573197899490493
-0.3226313591003418,0.027596473693847656,0.1256192930328631,1791573197931202776
0.2701193690299988,-0.08856362104415894,0.11310022414638883,1791573197961181068
-0.44134408235549927,0.24542057514190674,0.10321909991762568,1791573197989229199
-0.17856347560882568,-0.263638436794281,0.08320959518376905,1791573198019109429
0.5922571420669556,0.038213491439819336,0.06761684238683753,1791573198041104776
-0.717906653881073,-0.23754477500915527,0.0871947673679034,1791573198069087329
0.8423728942871094,0.22165793180465698,0.11120103167475939,1791573198099078123
-0.4048417806625366,0.013913273811340332,0.09167902646279168,1791573198120927624
0.9667377471923828,0.049831390380859375,0.09570007314582395,1791573198158881199
-0.08396643400192261,0.09233814477920532,0.0843006980879257,1791573198188872943
0.19065028429031372,-0.08574503660202026,0.07892351989300879,1791573198218754261
-0.30950701236724854,-0.03775852918624878,0.08499632101798263,1791573198250944362
0.016518056392669678,0.011844098567962646,0.10890944541450337,1791573198278789191
0.06874197721481323,0.03475499153137207,0.14066205980712482,1791573198308656307
-0.08070915937423706,-0.1941400170326233,0.1249643446577828,1791573198338575741
0.2677261233329773,0.1626371145248413,0.06849177703725483,1791573198368579527
-0.25883185863494873,-0.14568960666656494,0.09476925533946123,1791573198398566190
-0.007108449935913086,0.021252036094665527,0.07944906531597694,1791573198428451713
-0.298691987991333,0.131058931350708,0.09270434193953754,1791573198459044626
-0.17216289043426514,-0.32437294721603394,0.09231057983874222,1791573198491513045
0.39489269256591797,0.3171236515045166,0.13820055152512203,1791573198518364024
-0.7778041362762451,-0.32007306814193726,0.0798944161986664,1791573198547301924
0.3526206612586975,0.09827065467834473,0.0752018402451087,1791573198578216377
-0.5168695449829102,-0.1918213963508606,0.0913405272374912,1791573198608172938
0.6343737840652466,0.07696384191513062,0.1043183583979778,1791573198638155214
-0.5747728943824768,0.05118817090988159,0.1274880482380119,1791573198667113518
0.6066291332244873,-0.11644899845123291,0.10783622735422366,1791573198698780213
