acc_x, acc_y, angular_z, stamp, 
-0.0351102352142334,0.008725225925445557,1.2508309389395155e-10,1791572794042020948
-0.03508949279785156,-0.010988295078277588,6.883505896153678e-11,1791572794071976807
0.013673007488250732,0.007066190242767334,1.0559328010136212e-10,1791572794102040020
-0.02110576629638672,0.027117431163787842,-1.8922617728853168e-11,1791572794221835170
0.029314160346984863,-0.010873496532440186,2.2806827188194434e-11,1791572794281148859
-0.04465913772583008,-0.019882142543792725,-3.368356049320541e-11,1791572794311110474
-0.04607975482940674,-0.02148115634918213,-3.672109070578626e-12,1791572794341370534
-0.007729649543762207,0.007382810115814209,2.7348193287915297e-11,1791572794373631749
0.04268592596054077,-0.006893336772918701,3.5082075916751464e-11,1791572794401047603
0.008173048496246338,-0.01928257942199707,-1.0112569177403324e-11,1791572794430998262
-0.024102985858917236,-0.006476700305938721,9.98340869742422e-07,1791572794460849536
0.005066573619842529,0.02421623468399048,9.93651277911028e-07,1791572794490839823
0.041086673736572266,0.0044904351234436035,-1.1495853312572094e-10,1791572794520720686
-0.04605221748352051,0.0010395646095275879,-3.78405556267808e-12,1791572794580402998
-0.033669114112854004,0.003818213939666748,8.714921080722683e-11,1791572794730507985
0.045671045780181885,0.020002424716949463,-7.928580434072561e-12,1791572794760389947
0.06502431631088257,0.009118497371673584,-9.940883328565461e-07,1791572794790368203
-0.01824808120727539,0.0016637444496154785,1.5916294975570183e-10,1791572794821900008
-0.05962091684341431,-0.007599771022796631,1.4346862043395805e-10,1791572794853471239
0.003715813159942627,0.02269500494003296,-1.1139474463143494e-06,1791572794880223094
0.023539066314697266,-0.004537761211395264,1.4369484814118764e-12,1791572794910177158
0.03230118751525879,-0.019115328788757324,-1.341792505970519e-11,1791572794940088207
-0.03446471691131592,-0.011980772018432617,-3.906880973690601e-11,1791572794970129409
-0.03596687316894531,0.016763150691986084,-3.153344456484451e-11,1791572794999996112
-0.015653610229492188,-0.019316017627716064,-1.5540055174741408e-11,1791572795030033387
0.043709516525268555,-0.0031926631927490234,1.469864880031948e-11,1791572795062024374
-0.022977113723754883,-0.013916432857513428,-1.646926371215256e-12,1791572795092473450
-0.047930121421813965,-0.010165750980377197,-1.0128651538399488e-12,1791572795119906226
-0.022315621376037598,0.013292670249938965,4.749985768750344e-12,1791572795149727881
0.05148935317993164,0.011579692363739014,1.817641337020145e-11,1791572795179717671
0.009868741035461426,-0.015120267868041992,-1.7918362522615686e-11,1791572795208709206
-0.05857819318771362,-0.0075623393058776855,-2.1079798361887802e-11,1791572795239815125
-0.04376775026321411,-0.012579560279846191,-7.937121528950554e-11,1791572795270010648
0.042847275733947754,-0.003361225128173828,9.41492627073061e-07,1791572795301657841
0.06585860252380371,0.0004096031188964844,9.670004217979086e-07,1791572795332470280
-0.05302160978317261,-0.02823173999786377,-1.300112884080677e-10,1791572795369457491
-0.032864928245544434,0.011500656604766846,-1.6037763789889047e-10,1791572795399417333
0.019780397415161133,0.007886409759521484,-3.36305601109943e-10,1791572795429689221
0.032174885272979736,-0.00645756721496582,-3.261603221184137e-10,1791572795462109464
-0.020634889602661133,-0.022301435470581055,-0.00013652897296152351,1791572795488304564
0.049305737018585205,0.004257619380950928,0.0028294560619070387,1791572795519576596
0.559528648853302,0.7120209336280823,0.11946936579875345,1791572795549197808
1.579490065574646,0.22134679555892944,0.3576316083171423,1791572795579100425
0.1328069567680359,-0.281166672706604,0.41336137748286306,1791572795609014620
1.0730775594711304,0.02394711971282959,0.4394339353686399,1791572795639217357
0.054039835929870605,0.45386576652526855,0.4928685469508209,1791572795669540283
0.6188119053840637,0.3317137360572815,0.5275447630207286,1791572795701872879
0.34423017501831055,-0.1421581506729126,0.7361735211705032,1791572795728917711
0.5196294784545898,0.5040445327758789,0.7679915996338051,1791572795758797221
-0.07403141260147095,0.5848706960678101,0.8875128178765372,1791572795788770881
0.5886321663856506,-0.25823110342025757,1.0129383955148494,1791572795818736173
-0.2275334596633911,0.4735521674156189,1.088073523815932,1791572795848715482
0.3081128001213074,0.15413278341293335,1.1022111453578012,1791572795878564067
-0.34629499912261963,0.27802401781082153,1.0324000551696395,1791572795909590855
-0.33199596405029297,0.37673622369766235,0.9920435001121934,1791572795941733387
-0.0015890002250671387,-0.05708950757980347,1.1761458307475736,1791572795968507330
-0.14869844913482666,-0.328078031539917,1.026584767206871,1791572795998566135
0.4091145992279053,-0.160211980342865,1.0056793304276912,1791572796028410915
0.07700073719024658,0.16558235883712769,0.9710543211213267,1791572796058580127
-0.0685734748840332,0.011792004108428955,0.984833898301516,1791572796088340499
0.20539754629135132,0.35302847623825073,1.0075117923357528,1791572796118241908
0.09727275371551514,0.2316870093345642,0.9925581611485422,1791572796150063999
-0.23109740018844604,0.6993571519851685,0.9834905853238987,1791572796180771234
0.05527842044830322,0.04899543523788452,1.0664226448849652,1791572796208113851
-0.31849002838134766,-0.5508570671081543,1.008750169404461,1791572796238042398
0.023159921169281006,-0.02105027437210083,1.058530181885223,1791572796268002176
0.17970967292785645,0.5481913685798645,1.0303897623523577,1791572796297944525
0.016509950160980225,0.5165107250213623,0.9896268331561521,1791572796327886052
-0.479311466217041,0.3575497269630432,0.9887569325209346,1791572796357925469
-0.050174176692962646,-0.034425973892211914,0.9385976862387486,1791572796390134398
0.2180156111717224,-0.3031544089317322,1.0566431893067658,1791572796419328505
0.21533888578414917,0.08222520351409912,1.0597647725333994,1791572796447755712
-0.0025124549865722656,0.3616534471511841,1.0012108773653898,1791572796477626880
-0.11383414268493652,0.27655279636383057,1.0246040218265728,1791572796507593556
-0.11680829524993896,0.42054224014282227,1.0285354832129263,1791572796537544333
-0.09106731414794922,0.13894766569137573,0.9915061596123851,1791572796567547676
-0.12962496280670166,-0.06230038404464722,0.9929571751212326,1791572796597940237
0.021059393882751465,-0.16138839721679688,0.9651973629826914,1791572796629773935
0.1858769655227661,0.09592902660369873,1.1036881149380575,1791572796657380051
-0.2539469599723816,0.3859083652496338,1.0120977689143424,1791572796686306924
-0.1847032904624939,0.5944488048553467,0.938501879540671,1791572796717268744
-0.13349229097366333,0.5406576991081238,0.9918107828555522,1791572796747267796
0.08991092443466187,-0.16961556673049927,0.9998688913147801,1791572796777152398
-0.2524275779724121,-0.5239148139953613,0.977646967901661,1791572796807428850
0.016222596168518066,0.20714473724365234,0.956434609567285,1791572796838265887
-0.46959561109542847,0.33208125829696655,0.9562636351509235,1791572796869719540
0.3751985430717468,0.6451037526130676,1.1446857713219702,1791572796897015080
-0.19484257698059082,0.3650627136230469,1.0691275025565763,1791572796927262335
0.08347910642623901,-0.4442484378814697,1.0475373022419796,1791572796956877717
0.08606916666030884,-0.16641074419021606,1.0014451279537122,1791572796986895945
0.1391124725341797,0.20785987377166748,1.049027315094246,1791572797015786101
-0.3283569812774658,0.30188673734664917,0.9752492323473024,1791572797046779389
0.3449992537498474,0.35049575567245483,0.9657386797722775,1791572797077529420
-0.4486665725708008,0.47694045305252075,0.8811033299371196,1791572797110425797
0.3168368935585022,0.27001678943634033,1.0929074390821685,1791572797136579894
-0.0633925199508667,-0.2956084609031677,0.9830993253407047,1791572797166574392
0.16024529933929443,-0.2527756690979004,1.0020209662732409,1791572797196522956
-0.5034242272377014,0.1609889268875122,0.9996896797246092,1791572797226531489
-0.07651835680007935,0.934140682220459,1.0003704496819863,1791572797256404880
-0.027926325798034668,0.19446617364883423,1.0088525002345665,1791572797286594872
0.011183023452758789,0.2453574538230896,0.9668448654016201,1791572797318057833
0.1405465006828308,-0.27660542726516724,0.9792986594955283,1791572797349767975
-0.16224431991577148,-0.009990334510803223,1.1397361078618309,1791572797385304968
-0.09685307741165161,-0.37468594312667847,0.9878097267253135,1791572797416254234
0.08026063442230225,-0.1446514129638672,0.9910691585413984,1791572797447116693
-0.051339805126190186,0.13689368963241577,0.9863792264929269,1791572797478406112
-0.06116008758544922,-0.16060614585876465,0.9637493476504124,1791572797509707897
-0.0023488402366638184,-0.23301512002944946,1.1097557092653523,1791572797546115597
0.21470922231674194,0.08241885900497437,1.0621524629882408,1791572797575991437
0.11638832092285156,0.41279923915863037,1.0232264279422363,1791572797605961894
0.12336462736129761,0.5160165429115295,0.9099734486011487,1791572797637485989
-0.059403300285339355,0.21858561038970947,0.9715950690102589,1791572797667782323
-0.17587369680404663,0.16502755880355835,1.1191778562487185,1791572797695789561
0.0825728178024292,-0.24576979875564575,1.0134512530400366,1791572797725698288
-0.1489555835723877,-0.29016751050949097,0.9896565083347711,1791572797755606782
-0.2942671775817871,0.37984567880630493,1.0142714983733503,1791572797785571001
-0.48496079444885254,0.8833187222480774,1.0641350872329303,1791572797815621928
0.6298387050628662,0.21035313606262207,1.0543962547153307,1791572797846048175
-0.38627588748931885,-0.2719830870628357,0.9487161125474105,1791572797878010083
0.6571643948554993,-0.29733699560165405,1.062261329173983,1791572797905464708
-0.457925021648407,0.19316154718399048,1.013491224600484,1791572797935378732
0.10491383075714111,0.6466131806373596,1.0444137265982925,1791572797964307512
-0.22184377908706665,0.145313560962677,0.9892475619198839,1791572797994315158
0.5824573636054993,0.034818291664123535,0.9597399468533524,1791572798025274403
-0.260151207447052,0.22156202793121338,0.9904132151553828,1791572798055179526
0.437740683555603,0.20071160793304443,0.9480688494297069,1791572798085789371
-0.24426913261413574,-0.1580151915550232,0.9381332885408796,1791572798117550432
0.03957319259643555,-0.05238276720046997,1.0796013685264854,1791572798145110751
-0.2374224066734314,0.7031934857368469,1.0087134448759605,1791572798175011718
0.0677492618560791,0.5525379180908203,1.0097490022063365,1791572798204930824
-0.5760958194732666,-0.11952447891235352,1.0240926651410283,1791572798234922303
-0.048742711544036865,-0.516710102558136,1.0718749629578717,1791572798263841541
0.03863406181335449,0.02269899845123291,1.0009156386347329,1791572798294813137
0.10264384746551514,0.41967785358428955,0.9738198789315119,1791572798325972280
0.15545684099197388,0.49997830390930176,0.9644252507917405,1791572798357516045
-0.12555140256881714,0.24501293897628784,1.130573737465786,1791572798384707701
-0.05497044324874878,-0.04087519645690918,1.0271042333153628,1791572798414598136
-0.33769291639328003,-0.17141234874725342,0.9970934574537225,1791572798444596105
0.1963557004928589,0.0726049542427063,0.9904504979415577,1791572798474567159
-0.2316719889640808,0.09102529287338257,1.0303577705425728,1791572798504464929
0.20077091455459595,0.1995818018913269,1.0389509192858186,1791572798534470046
-0.16406577825546265,0.42392921447753906,0.9721566622162594,1791572798565571943
0.3951874375343323,0.4287700057029724,0.9483591853352253,1791572798597549722
-0.23938804864883423,-0.13784289360046387,1.2127181765534958,1791572798623297093
-0.46125757694244385,-0.21363258361816406,1.000243514206261,1791572798654975912
0.8140634894371033,0.03607177734375,1.030722872205256,1791572798684175392
-0.3596605658531189,0.4244300127029419,0.9492130724250557,1791572798714196617
-0.08507692813873291,0.3584328293800354,0.9821892489395034,1791572798744155618
-0.0466846227645874,0.40884894132614136,1.015705566921238,1791572798774054648
0.23434436321258545,-0.09330755472183228,0.9538916541692609,1791572798805747812
-0.11838912963867188,0.2626039385795593,0.9550832724542766,1791572798837134264
0.2995228171348572,0.056414127349853516,1.1073995092745654,1791572798864007556
-0.29732078313827515,0.09057682752609253,1.0325686522050186,1791572798893901768
0.16680175065994263,-0.17511993646621704,1.0225116768203388,1791572798923816258
0.15542972087860107,0.18263709545135498,1.0210625989122233,1791572798953793504
-0.32103776931762695,0.49254077672958374,1.0249496992213496,1791572798983782614
0.018621504306793213,0.6149541139602661,1.0084725543153161,1791572799013721160
0.10875368118286133,-0.13019126653671265,0.9299235209417491,1791572799045575963
-0.38901329040527344,-0.7008534669876099,1.0533054759805898,1791572799073658053
0.10145080089569092,0.10677248239517212,1.0215402921197971,1791572799103559952
-0.024506330490112305,0.8295533061027527,1.021670194494468,1791572799133520435
0.15711373090744019,0.2931337356567383,1.0039833066625758,1791572799163494313
-0.14294999837875366,0.058031320571899414,1.0069074353994045,1791572799193450685
0.13053369522094727,-0.19418776035308838,1.043878905385843,1791572799222391046
0.07716447114944458,0.18232887983322144,0.9422483156232259,1791572799253625444
-0.08123928308486938,0.0103759765625,0.9139630275126073,1791572799286272800
0.13241636753082275,0.04805117845535278,1.102467743497566,1791572799313266332
-0.09189414978027344,0.25144726037979126,0.9973908570630147,1791572799343230903
0.042677998542785645,0.6407331228256226,1.0202667623999062,1791572799373108982
-0.2848525643348694,0.06753623485565186,0.9949672976333479,1791572799403083037
0.1268976330757141,-0.003987610340118408,0.9584522209129983,1791572799433037343
-0.23546385765075684,-0.3928073048591614,1.0004089896104644,1791572799462997384
-0.39022815227508545,0.27786242961883545,1.0239878570533112,1791572799492562175
-0.08240705728530884,0.6140453815460205,0.8828331222030346,1791572799525917959
-0.07930749654769897,0.4026084542274475,1.1207731695724277,1791572799552875241
-0.3452598452568054,0.056730449199676514,1.0776156290314474,1791572799582766812
0.7224112749099731,0.044300734996795654,1.061782433215189,1791572799612728711
-0.2185017466545105,-0.24633657932281494,1.0031346648485748,1791572799642723104
-0.08266294002532959,0.03085094690322876,0.9949629139145497,1791572799672637570
-0.27213799953460693,0.2540211081504822,1.022576387286769,1791572799702654307
0.28905189037323,0.42532891035079956,0.9797414446498703,1791572799734030512
-0.3720462918281555,0.40705621242523193,0.9643935389411495,1791572799765646344
0.06700074672698975,-0.028011441230773926,1.107727852145141,1791572799792655163
-0.42697322368621826,-0.21997743844985962,0.9835602142790305,1791572799822530592
0.29074597358703613,-0.0033972859382629395,0.9819512890479153,1791572799852486498
-0.03550159931182861,0.3835919499397278,1.0068646694699441,1791572799882535674
-0.15947675704956055,0.34550970792770386,1.0073665739431439,1791572799912408577
-0.6103211641311646,0.42965054512023926,1.0052341975430241,1791572799942581531
0.12313687801361084,0.05171126127243042,1.017010443467423,1791572799973805568
-0.01597583293914795,-0.31296026706695557,0.9941217642820863,1791572800005090402
0.3748595118522644,-0.147324800491333,1.0915974323877067,1791572800032276364
-0.11663657426834106,0.30610114336013794,0.9874020458807945,1791572800062372267
-0.37915754318237305,0.5572144985198975,1.0464208498914906,1791572800091296165
-0.14381295442581177,0.018149912357330322,0.9613822712878646,1791572800122381275
0.11006635427474976,0.15378403663635254,1.0179236015743878,1791572800152375862
0.10505127906799316,-0.10225796699523926,1.0114821652932675,1791572800182520927
-0.3506350517272949,0.08137214183807373,0.9359805058498498,1791572800213713096
0.0045819878578186035,-0.06439709663391113,0.9607144876257747,1791572800244920131
-0.06806254386901855,-0.22382396459579468,1.1580587758513123,1791572800271305179
-0.03486508131027222,0.17662501335144043,0.9545592129060738,1791572800302400703
0.11961483955383301,0.5542268753051758,0.9567791324451649,1791572800332149800
-0.22399020195007324,0.4541476368904114,0.986582129155123,1791572800362201560
-0.04727208614349365,-0.011097729206085205,1.0224331342314568,1791572800392205132
-0.21246302127838135,0.16051876544952393,1.0175106357835668,1791572800422214276
-0.16431617736816406,-0.32421624660491943,0.9632858312077437,1791572800454070567
-0.22601383924484253,-0.09531569480895996,1.1524973869943753,1791572800481416878
0.22975516319274902,0.5482057332992554,1.0833631502510632,1791572800510317569
-0.03569459915161133,0.6748582720756531,1.0162264091483828,1791572800541350216
-0.048091113567352295,-0.019849658012390137,1.0391930172356996,1791572800571222660
-0.27255958318710327,-0.2566453814506531,0.9893539357964831,1791572800601240426
0.2899203896522522,-0.3872494697570801,1.0015480173276212,1791572800631216729
-0.1073904037475586,0.1966913342475891,1.024463945499226,1791572800661751821
0.16107326745986938,0.4998157024383545,0.919733291999906,1791572800694044919
0.09029066562652588,0.3452110290527344,1.0667512518911249,1791572800721035582
-0.0480843186378479,0.08093297481536865,1.0481547152766648,1791572800750051516
-0.556914210319519,0.07976025342941284,1.0011398287408335,1791572800781001348
0.9765638113021851,0.031010866165161133,0.9917412616589538,1791572800810898408
-0.6611412167549133,-0.1792830228805542,1.0136851070103194,1791572800840857736
0.2384859323501587,0.3634861707687378,1.0342669597503729,1791572800870781039
-0.08176302909851074,0.6796365976333618,1.0163804515046402,1791572800901287071
-0.07432109117507935,0.1361093521118164,0.9449194797471263,1791572800933635088
-0.12569063901901245,-0.14059007167816162,1.1294026274625308,1791572800960741702
-0.041361093521118164,-0.3426182270050049,0.9869530299993514,1791572800990581850
0.032639920711517334,0.12966179847717285,0.9882801007789033,1791572801020484931
-0.24856281280517578,0.4720260500907898,1.016935190855116,1791572801050510197
0.4270715117454529,0.40279310941696167,1.0052175360113047,1791572801080447441
-0.3442428708076477,0.19953930377960205,0.9729874744082294,1791572801110443767
-0.027631700038909912,0.4121076464653015,0.9432559383410403,1791572801142252072
-0.223807692527771,-0.22586578130722046,0.9735926828158447,1791572801173658868
0.12909364700317383,-0.33329570293426514,1.1884394275359862,1791572801199306832
-0.01844841241836548,0.25469136238098145,1.0191293131279318,1791572801230227296
0.12836390733718872,0.6083974838256836,1.022287013610822,1791572801260167528
-0.198766827583313,0.3062455654144287,0.9850665067118046,1791572801290081798
-0.1373577117919922,0.22610419988632202,1.0216255150709324,1791572801320099843
0.065998375415802,-0.4359716773033142,1.0585529613019211,1791572801350088207
0.16120213270187378,-0.07266473770141602,0.9321426863946842,1791572801381779520
0.29180461168289185,0.33517253398895264,0.9204908954363795,1791572801412552165
-0.23304766416549683,0.4821418523788452,1.0837461149425713,1791572801440016396
-0.28694427013397217,0.1816694140434265,1.0172649432701677,1791572801469788519
-0.4348532557487488,0.22034847736358643,1.0127416969962608,1791572801499765064
0.41316938400268555,0.17870432138442993,0.9764487692021683,1791572801529921698
-0.10963952541351318,-0.023759543895721436,0.9929039564724259,1791572801559674881
-0.08240950107574463,-0.19408279657363892,1.043452812909338,1791572801589294165
0.25505679845809937,0.0875093936920166,0.9761831007037091,1791572801621790589
0.24419033527374268,0.208099365234375,1.0687232397429718,1791572801650048433
-0.25065356492996216,0.40660446882247925,0.9961141262134025,1791572801679508081
-0.41027235984802246,0.49957841634750366,0.9949335738237064,1791572801709489096
0.05336195230484009,0.132574200630188,1.0105390196204769,1791572801739461523
-0.28814250230789185,-0.3406531810760498,1.0097855951183794,1791572801769403768
0.15935826301574707,0.053956568241119385,1.0099927307654784,1791572801799337993
-0.033084869384765625,0.14492172002792358,1.013511091037336,1791572801829956679
-0.19885671138763428,0.07699602842330933,0.946223868951158,1791572801861965643
0.25444066524505615,0.6246606707572937,1.0901753759985233,1791572801889269118
0.41343456506729126,0.39087414741516113,0.9953747531062447,1791572801919119325
-0.3546707034111023,0.005283176898956299,1.0021411180720974,1791572801949081004
-0.06639856100082397,-0.18617743253707886,1.0094126085999584,1791572801978045684
-0.03566938638687134,-0.028854787349700928,0.9520435647929846,1791572802008957419
-0.0030516982078552246,0.19419699907302856,0.9934472123513338,1791572802038950903
