acc_x, acc_y, angular_z, stamp, 
-0.012466669082641602,0.0005235075950622559,2.985702362780634e-06,1791572773943051727
0.027038753032684326,-0.006602764129638672,3.953408790602681e-06,1791572773973201237
-0.025065720081329346,0.005947232246398926,3.7809382499445254e-06,1791572774004726246
0.018042564392089844,0.0004577040672302246,9.526095183057249e-07,1791572774035997368
-0.008982241153717041,-0.00495380163192749,2.208254943016349e-06,1791572774062984213
-0.02146250009536743,-0.006689012050628662,9.923314578882802e-07,1791572774093006275
0.03250277042388916,0.0004121065139770508,3.004263616863711e-06,1791572774122763107
-0.003422260284423828,0.005768001079559326,9.93967033565682e-07,1791572774152737603
0.009216547012329102,-0.017617344856262207,1.0292508117637963e-06,1791572774181686377
-0.017765402793884277,0.003980875015258789,9.658777241606788e-07,1791572774212534107
-0.012236058712005615,-0.0246923565864563,9.256270883259545e-07,1791572774244723027
0.003993630409240723,0.013261556625366211,9.77030248358248e-07,1791572774275215159
0.02001398801803589,0.015040576457977295,1.6010065047157525e-06,1791572774312433436
0.012372970581054688,0.000558316707611084,9.927337119189092e-07,1791572774342447522
-0.02565985918045044,-0.0068138837814331055,9.912956349433581e-07,1791572774372508617
-0.02929610013961792,0.014650285243988037,-4.927746965946312e-11,1791572774405205343
0.04246395826339722,0.005492269992828369,-3.564991223486167e-11,1791572774431301524
0.02413100004196167,-0.03781861066818237,3.876493464096237e-12,1791572774462200013
-0.04271137714385986,-0.003577113151550293,-1.092836932147908e-12,1791572774492195031
-0.03353762626647949,0.001902759075164795,4.512534460449201e-13,1791572774522210327
0.02070629596710205,0.01984626054763794,-6.5941689522053275e-12,1791572774552228907
0.041977882385253906,0.0018327832221984863,-1.5876565848910188e-12,1791572774582052286
-0.005124151706695557,-0.012462258338928223,2.4452188656849064e-12,1791572774612663294
-0.06237727403640747,-0.010531246662139893,8.044113281214911e-12,1791572774644748649
-0.011512815952301025,-0.008529067039489746,-3.0066405467370325e-11,1791572774672038042
0.05361825227737427,0.018496394157409668,9.99266264586497e-07,1791572774701859149
0.03884369134902954,-0.008585929870605469,9.906899071528937e-07,1791572774731939594
-0.04779142141342163,-0.01213926076889038,-1.1652492966071926e-11,1791572774761734353
-0.04398459196090698,-0.017384648323059082,-1.3127777575311052e-11,1791572774791734780
0.028225839138031006,0.0025211572647094727,-7.278700718216439e-11,1791572774821671022
0.05125027894973755,-0.00464320182800293,-6.47483351941937e-11,1791572774852376417
-0.005134522914886475,-0.024300754070281982,3.2324696724919305e-11,1791572774884661091
-0.04673635959625244,0.0065228939056396484,1.6944372038422567e-10,1791572774911532416
-0.019346296787261963,-0.00028336048126220703,1.2510664465124477e-10,1791572774941489527
0.07230812311172485,-0.007252335548400879,9.953973678082442e-07,1791572774971431084
0.030236244201660156,-0.019569814205169678,2.4321080177796525e-10,1791572775001403524
-0.06369322538375854,0.006033182144165039,5.913462793956835e-10,1791572775030291136
-0.020316898822784424,0.01170259714126587,-9.583929954740995e-07,1791572775061366652
0.051895201206207275,0.03872263431549072,4.16085979320307e-10,1791572775092805816
0.0587504506111145,0.017000019550323486,4.250527378353658e-10,1791572775124382008
-0.040679216384887695,-0.03501760959625244,7.688208613649084e-10,1791572775151486029
-0.05129969120025635,-0.0024893879890441895,7.557052633547557e-10,1791572775181580967
0.03357642889022827,0.037080585956573486,5.451251236757749e-10,1791572775211356863
0.049550533294677734,-0.01342540979385376,4.144671429774464e-10,1791572775241559688
-0.024694859981536865,-0.013511419296264648,6.014553622484837e-10,1791572775271243246
-0.06959307193756104,0.022401094436645508,6.544631616470924e-10,1791572775301232114
-0.029543578624725342,0.03485381603240967,3.7953081469237705e-10,1791572775332657271
0.04622071981430054,0.01119297742843628,1.6706864791399813e-10,1791572775363563927
0.03325432538986206,-0.021456658840179443,-1.1150246968734698e-06,1791572775390288047
-0.06563878059387207,-0.0017505288124084473,1.5229096621370333e-10,1791572775421059453
-0.061505794525146484,-0.01432490348815918,9.248307733168438e-11,1791572775451135911
0.036260008811950684,0.019624531269073486,-1.435109516184745e-11,1791572775481062994
0.04343676567077637,-0.018323302268981934,-2.2468016983881517e-11,1791572775511057865
-0.01610863208770752,-0.02909308671951294,-4.076269825158218e-12,1791572775541090292
-0.06772202253341675,0.015795469284057617,-1.0239836357088713e-11,1791572775572399695
0.02115422487258911,0.008508145809173584,9.88703483548736e-07,1791572775602542300
0.04655855894088745,0.018975257873535156,1.0487446872777527e-06,1791572775630960881
0.006763458251953125,-0.03152656555175781,9.931888614260229e-07,1791572775660971983
-0.05054736137390137,-0.0009868741035461426,1.3032224015965214e-10,1791572775690958270
-0.030200183391571045,0.0008143186569213867,1.9908658896379063e-10,1791572775720211904
0.05838042497634888,0.011412858963012695,9.927106648839345e-07,1791572775750242727
0.052549540996551514,-0.017450153827667236,3.458782152604439e-10,1791572775781110813
-0.0413854718208313,-0.026388466358184814,2.4275821545961283e-10,1791572775812425353
-0.046630024909973145,-0.002846360206604004,1.0777695028815444e-06,1791572775840081035
0.0327109694480896,0.006177127361297607,9.95013023859521e-07,1791572775870036814
0.070209801197052,-0.006499290466308594,1.5505571318323762e-10,1791572775899976652
-0.0024110078811645508,-0.020770251750946045,7.948028011170057e-11,1791572775929893916
-0.07980149984359741,-0.009771764278411865,1.2946310926231606e-11,1791572775959853611
-0.00925302505493164,-0.0005866289138793945,-6.931150321859153e-12,1791572775989789147
0.07169049978256226,0.012035846710205078,9.685681349215076e-07,1791572776020557617
0.0387231707572937,-0.023794591426849365,-1.8324746241986186e-11,1791572776052862263
-0.047960638999938965,-0.00739365816116333,1.7263690154577068e-11,1791572776079708998
-0.04778456687927246,-0.0017666816711425781,2.02263799485415e-11,1791572776109589107
0.04969710111618042,0.021639108657836914,-5.384564943665335e-11,1791572776139713520
0.04044067859649658,0.018888771533966064,-3.135866410852836e-11,1791572776169539315
0.14363527297973633,0.015662193298339844,0.0009849113587562506,1791572776199463813
2.363818883895874,0.24694854021072388,0.049360866925762505,1791572776229438897
-0.14574718475341797,0.09013700485229492,0.02303310639178489,1791572776261186967
0.4272347688674927,-0.32584089040756226,0.01077034053211763,1791572776292450767
-0.25462132692337036,-0.31457018852233887,0.04037899633207572,1791572776329233575
-0.3197776675224304,0.21122205257415771,0.05381224513301923,1791572776359191065
-0.3056930899620056,0.18754905462265015,0.03139498672106048,1791572776389407736
-0.323943555355072,0.06244015693664551,-0.02396099273051119,1791572776420705765
0.7297675013542175,-0.2346498966217041,-0.03181268464332588,1791572776451307678
0.4356755018234253,-0.23265665769577026,-0.06940861220374929,1791572776479082841
0.6812601089477539,0.22820574045181274,-0.0414367653989754,1791572776508970032
-0.29141074419021606,0.27197200059890747,-0.0018255695212593718,1791572776538975080
-0.0713118314743042,-0.015188753604888916,0.004330354111474395,1791572776569194537
-0.11154294013977051,-0.25884169340133667,0.010662132440444222,1791572776598905027
0.3150951862335205,-0.02440035343170166,0.02355177531608531,1791572776628149253
0.3416512608528137,0.19304251670837402,-4.9953874589170536e-05,1791572776660874235
0.12350720167160034,0.13642942905426025,-0.008762808449479275,1791572776691412961
0.03096550703048706,-0.3621542453765869,0.006134064781962414,1791572776718629578
-0.2785945534706116,0.047258079051971436,0.016049913132946046,1791572776748610383
0.01603543758392334,0.30333197116851807,0.04968551096584969,1791572776778615351
-0.11990559101104736,0.03889024257659912,0.045120168018802725,1791572776808464020
0.17702043056488037,-0.4671371579170227,0.013922556757144858,1791572776838466967
0.5440736413002014,-0.03866147994995117,-0.055550580962465665,1791572776869068817
0.16938704252243042,0.37260937690734863,-0.054282308338576106,1791572776901162884
0.13973468542099,-0.051035284996032715,-0.0019725804241900327,1791572776929023721
0.2449074387550354,-0.1299736499786377,-0.007032144596023249,1791572776958754239
0.16688024997711182,0.1349499225616455,-0.002227526142045644,1791572776988187231
-0.06370729207992554,-0.0796632170677185,-0.005365270427439751,1791572777018209514
0.010027825832366943,0.07289892435073853,-0.00849445407971504,1791572777048479138
0.045354485511779785,0.10281103849411011,0.03257184660561551,1791572777078096587
0.2962619662284851,-0.2720182538032532,0.020406985149263052,1791572777108712350
-0.16111785173416138,-0.025283336639404297,-0.025083457951243206,1791572777140969053
0.19094306230545044,0.0537601113319397,-0.007774240696703412,1791572777177912343
-0.19146227836608887,0.07701551914215088,-0.016051119641212423,1791572777208136151
0.07844877243041992,-0.0029309988021850586,-0.01681137156619866,1791572777237917667
0.4818403720855713,-0.02120882272720337,0.010907125084132342,1791572777269354636
0.3087232708930969,0.13165956735610962,0.00922230759139335,1791572777300709496
-0.11108773946762085,-0.23179346323013306,0.01696396887571522,1791572777327826954
0.37478530406951904,0.05269324779510498,-0.000626167606084909,1791572777357633837
-0.14661633968353271,0.10730975866317749,0.006333475139262567,1791572777387590380
-0.26864683628082275,-0.023017048835754395,-0.004143380148896295,1791572777417567181
0.601526141166687,-0.023993253707885742,-0.008313776517030236,1791572777447715107
-0.053019940853118896,-0.055264294147491455,-0.0002173358436900541,1791572777477487559
0.6239116191864014,0.07994037866592407,-0.020688320334590664,1791572777508665545
-0.37809479236602783,-0.14878004789352417,0.019457257545643165,1791572777540507933
0.08116370439529419,0.04873549938201904,0.007454900212106643,1791572777567344702
0.08609294891357422,-0.005541861057281494,-0.014375038172411437,1791572777596294429
0.4008321762084961,-0.1261693835258484,-0.033389122212170545,1791572777627186439
0.04705393314361572,-0.271381139755249,0.0027735953179542166,1791572777657227808
0.3772507905960083,0.33972132205963135,0.0013621258576658572,1791572777687090309
-0.1363549828529358,0.14752298593521118,0.004879388088537688,1791572777717085642
0.5591727495193481,-0.3419284224510193,-0.0034154756766862056,1791572777748664358
-0.2029239535331726,0.08103030920028687,0.006105211099538583,1791572777779738330
0.6717639565467834,0.1748586893081665,-0.0070975712020398835,1791572777806957909
-0.08019334077835083,0.06980627775192261,0.01839338083818814,1791572777836899594
0.03517955541610718,-0.44265687465667725,0.01554643131068647,1791572777865855608
-0.065948486328125,0.3710101246833801,-0.005560420823445946,1791572777896778948
-0.3775724768638611,0.009714066982269287,0.008607388466425394,1791572777926796414
0.8711462616920471,-0.6542896628379822,0.038035130281749416,1791572777956842544
0.3550049066543579,0.7275044918060303,0.008270258493653097,1791572777988677666
-0.6007034778594971,0.09392082691192627,-0.06637589259875795,1791572778016681947
-0.4531950354576111,-0.7571410536766052,-0.08036321002206945,1791572778046571401
-0.44333571195602417,0.3696405291557312,-0.03149835578857351,1791572778076498549
-0.14191001653671265,-0.12213742733001709,0.025126304090597275,1791572778106477242
0.045355379581451416,0.21053683757781982,0.06228306633694298,1791572778136449020
0.4836823344230652,-0.16173028945922852,0.05265514541075094,1791572778166362506
0.27502280473709106,0.1958441138267517,0.010458132974053548,1791572778196596571
-0.29453045129776,-0.03708827495574951,-0.006703188966826403,1791572778229405365
0.2877432703971863,-0.45101338624954224,-0.011332487500215227,1791572778256230772
-0.2554161548614502,0.45145851373672485,0.027971847590328416,1791572778286152765
0.7055188417434692,-0.36217230558395386,-0.004297723289764355,1791572778316104932
-0.4826081395149231,0.4160194993019104,0.008273861970481213,1791572778346082585
0.5095983147621155,-0.0523495078086853,0.011800951677061477,1791572778376027020
-0.426727831363678,-0.4297105073928833,0.010060697635001531,1791572778406018694
0.06604403257369995,0.8177977204322815,0.020752684609440727,1791572778436568414
-0.035725414752960205,-0.8571966886520386,0.006057119788660323,1791572778467965310
-0.00922316312789917,0.5003204941749573,0.009048676436398674,1791572778495917562
-0.008475065231323242,-0.1918652057647705,-0.0005726198619438775,1791572778525744977
0.06509745121002197,0.1351568102836609,-0.029303454937131258,1791572778555710665
-0.4349658489227295,0.18421578407287598,-0.0043110080376877425,1791572778585697330
0.0291212797164917,-0.5854797959327698,0.00031698830804246933,1791572778615644196
-0.10566413402557373,0.6840187311172485,-0.0076856665788813585,1791572778645597985
0.4156065583229065,-0.48471635580062866,-0.022857185905217795,1791572778676991064
-0.3515399098396301,0.2049277424812317,0.002300830744261168,1791572778708677923
0.35775309801101685,0.0793500542640686,0.0107898661885413,1791572778735457496
-0.45570892095565796,-0.39485615491867065,-0.01278749501921497,1791572778765443764
0.2897316813468933,0.2920042872428894,0.0027405153734635142,1791572778795349152
-0.04897516965866089,-0.15617603063583374,-0.018807235600091732,1791572778825343685
-0.06549423933029175,0.16654038429260254,0.0067292343436842865,1791572778854308243
0.10613328218460083,-0.10052025318145752,0.02073170233130506,1791572778885228483
0.3360700011253357,0.3534896969795227,0.0045963135251424194,1791572778916865741
-0.197268545627594,-0.12474244832992554,0.004512079529800168,1791572778948165801
0.23756664991378784,-0.17857372760772705,0.011600187978458234,1791572778975079531
-0.04346168041229248,0.20661544799804688,0.009333537805481835,1791572779005044353
-0.08054858446121216,-0.14512783288955688,0.0042075658471477755,1791572779035037188
-0.01261049509048462,0.2511492371559143,-0.007532199117138949,1791572779064923497
-0.05972522497177124,-0.12877202033996582,0.010182486871273006,1791572779093917532
0.22505396604537964,-0.4343423843383789,0.010566620129572178,1791572779124974201
-0.24797850847244263,0.39639270305633545,0.012558357901454808,1791572779156561942
0.5359569191932678,-0.22970330715179443,-0.020140109514338235,1791572779186681526
-0.4551697373390198,0.4242536425590515,-0.025375345128388873,1791572779214760639
0.03595602512359619,-0.27226531505584717,-0.022432054952835307,1791572779244710810
-0.21130406856536865,-0.25438857078552246,0.007922223347721195,1791572779274768762
0.29105818271636963,0.26250284910202026,0.027660196508086692,1791572779304787883
-0.1546386480331421,-0.27577894926071167,-0.01799336477167208,1791572779334649409
-0.1758376955986023,0.0813978910446167,-0.018642882110739216,1791572779364950121
0.09769946336746216,0.13486337661743164,-0.0128304645373758,1791572779396541539
0.16996681690216064,-0.2712740898132324,-0.006681067955623111,1791572779424664503
-0.3367377519607544,0.4323693513870239,0.018860948864616624,1791572779454393030
0.7150052189826965,-0.5920873284339905,0.01646881708084216,1791572779483315520
-0.354173481464386,0.5698834657669067,0.01780798134310648,1791572779514260612
0.581272542476654,-0.31120550632476807,0.007329395799915502,1791572779544581036
-0.3572350740432739,0.10798901319503784,-0.00964809187240722,1791572779573375352
0.0812562108039856,0.315476655960083,-0.002098928578162131,1791572779604888205
-0.14142274856567383,-0.7614678144454956,0.006219822485818562,1791572779637161739
0.39668774604797363,0.5784395933151245,0.007535599009038851,1791572779664131706
-0.28229308128356934,-0.291337788105011,-0.0361482605631913,1791572779693967413
-0.08147042989730835,0.04742562770843506,-0.022576202866788502,1791572779723958022
-0.45350182056427,0.2603423595428467,-0.0037764592224074365,1791572779753891473
0.25454556941986084,-0.45756906270980835,0.004041959063739684,1791572779783838833
-0.07979357242584229,0.34091174602508545,0.03681662431132441,1791572779813939794
0.6199979186058044,-0.061997056007385254,0.003948873056774733,1791572779844591719
-0.5046172738075256,0.101864755153656,0.010738529435244634,1791572779876610921
0.3038749694824219,0.1334775686264038,0.02439216316361636,1791572779913642527
-0.31521034240722656,-0.054227352142333984,0.004724321823478164,1791572779943648100
0.2961955666542053,0.17504936456680298,-0.00857688188798898,1791572779973576208
0.1640937328338623,-0.2876022458076477,0.00879618334700768,1791572780004824395
0.3041062355041504,0.04135918617248535,0.00028668756542943693,1791572780036841799
-0.5227669477462769,0.32179659605026245,0.005496993021853732,1791572780073450173
0.19458156824111938,-0.40149641036987305,-0.022729270447974795,1791572780103474935
-0.607408881187439,0.20350080728530884,-0.01306641241390739,1791572780132389237
0.6456634998321533,-0.10375332832336426,0.029469227699919803,1791572780164787206
-0.33473432064056396,-0.120414137840271,0.015495904842060745,1791572780196624295
0.5498446226119995,0.47570914030075073,-0.012087931127259493,1791572780223704391
-0.24685591459274292,-0.2357160449028015,-0.03625405447602092,1791572780253181622
-0.011907577514648438,0.23261457681655884,-0.026687727615011838,1791572780283130345
-0.016170918941497803,-0.33327752351760864,0.02216349639606214,1791572780313006786
-0.0929868221282959,0.1952875852584839,0.006105840215210351,1791572780343193434
0.0732184648513794,0.09755170345306396,-0.011135109546869642,1791572780372926323
0.26459115743637085,-0.4476178288459778,-0.01572425156860767,1791572780405088795
-0.18200230598449707,0.5059343576431274,0.00981028253226226,1791572780436244192
-0.0090065598487854,-0.5051866769790649,-0.00819611197597056,1791572780463627852
-0.05001479387283325,0.11154741048812866,0.003593289624096679,1791572780492761765
0.24415534734725952,-0.4143397808074951,0.02870193880564607,1791572780514870780
0.32952916622161865,-0.4107013940811157,0.016086452014800353,1791572780552849126
-0.12038618326187134,0.2067415714263916,0.014335618619279298,1791572780582681289
0.24395817518234253,-0.2806592583656311,-0.012595549064229297,1791572780612721658
-0.6466174721717834,0.4300200939178467,0.0020891091090965547,1791572780644827159
0.39811766147613525,-0.5614237785339355,0.005497757748515021,1791572780672484049
-0.34522122144699097,0.0431632399559021,-0.0012548438540815072,1791572780702475750
-0.017554759979248047,0.17923027276992798,0.005617088869071346,1791572780732405364
0.4204557538032532,-0.29511773586273193,-0.004099470437921006,1791572780762553309
-0.2291228175163269,-0.03726476430892944,0.002045750608920306,1791572780792457100
0.1704416275024414,0.1347212791442871,-0.009615850892768188,1791572780821300100
-0.036887407302856445,-0.2236061692237854,-0.005046673684625993,1791572780853116121
-0.15787440538406372,0.12702178955078125,0.00045728190240178353,1791572780884677942
0.22970950603485107,-0.0913017988204956,0.0020972973236731873,1791572780912118979
-0.1811111569404602,0.24152731895446777,0.017663992889818993,1791572780942056235
0.27531832456588745,-0.22698307037353516,-0.017332245017536226,1791572780971921142
-0.31632131338119507,-0.035327017307281494,-0.0073467127003149614,1791572781000982467
0.2371734380722046,-0.05400097370147705,0.0004652422271305084,1791572781031863621
-0.26698583364486694,0.006080567836761475,-0.002333135726673816,1791572781061822313
0.010172069072723389,0.21282464265823364,0.009045389171866867,1791572781092739026
-0.012648046016693115,-0.04079383611679077,-0.0010591919550497484,1791572781124921160
-0.044529736042022705,0.0823889970779419,-0.003057289700405616,1791572781151752537
-0.0708504319190979,-0.25899267196655273,0.008489247412811443,1791572781181651643
0.12647908926010132,0.005119442939758301,-0.003933618119318069,1791572781211591882
-0.21856540441513062,0.2846798896789551,0.0034505585717728485,1791572781241649562
0.35196274518966675,-0.24682259559631348,-0.008974818362808808,1791572781271541860
-0.5585036873817444,0.43336427211761475,0.00910644821943481,1791572781301627648
0.5902721285820007,-0.36842232942581177,0.020985072492725295,1791572781332681013
-0.5739586353302002,0.18643337488174438,0.0026176089301093272,1791572781365126934
0.39812612533569336,0.11455750465393066,-0.010484561699399833,1791572781391698257
-0.2687690258026123,-0.4518643021583557,-0.02448305186951847,1791572781421470408
-0.045041441917419434,0.672224760055542,-0.026461774344614664,1791572781451473044
-0.1863352656364441,-0.4911516308784485,-0.011048356101505969,1791572781481402487
0.45887041091918945,0.16352838277816772,0.009970581510344668,1791572781511455568
0.011144518852233887,0.053948938846588135,0.03110682245079467,1791572781541436876
0.004929840564727783,-0.12471228837966919,0.008627424858771326,1791572781572741620
0.045404911041259766,0.399786114692688,0.008521697116356006,1791572781603565079
-0.31821364164352417,-0.6333650946617126,-0.02296488835825256,1791572781631349643
0.05145692825317383,0.6975529193878174,-0.0016784575096399118,1791572781661353309
0.008906662464141846,-0.42584651708602905,0.010871968477426362,1791572781691486906
0.4281681180000305,-0.29456108808517456,-0.008774162150801419,1791572781721331500
-0.4609556794166565,0.3079650402069092,-0.013818217467722806,1791572781751356574
0.13833153247833252,-0.3898344039916992,-0.005908379129717589,1791572781780313798
-0.3427143096923828,0.5132437944412231,0.018557059307097994,1791572781813112090
0.17344290018081665,-0.39134007692337036,0.008242690372403114,1791572781840673337
-0.2220781445503235,0.10631650686264038,-0.0020209123487297913,1791572781870299929
0.4974631667137146,-0.015049278736114502,0.0001095161801687634,1791572781900598964
-0.5276049375534058,0.05384087562561035,0.0005086916296970616,1791572781930522549
-0.03005528450012207,0.2324427366256714,0.013222309109957347,1791572781960424266
-0.38702255487442017,-0.26786887645721436,-0.008901153226919256,1791572781990427111
0.34361547231674194,0.14906328916549683,-0.011707112209470103,1791572782020975292
-0.12206387519836426,-0.1451934576034546,0.009736661171575407,1791572782053023951
0.3420868515968323,0.11163496971130371,-0.007825031273337816,1791572782080344952
-0.32414883375167847,-0.06003302335739136,0.014613050604625439,1791572782109308405
0.13919669389724731,-0.10226249694824219,0.0074887968313935935,1791572782140205392
-0.7123897671699524,0.16798853874206543,0.007369397739114243,1791572782170283385
0.7558920979499817,-0.26296311616897583,0.026808147383478722,1791572782200178020
-0.3208720088005066,0.08041620254516602,-0.020652255446383227,1791572782229015371
0.3768935203552246,0.2854459881782532,-0.010675419225901525,1791572782261548408
-0.3002641201019287,-0.31170201301574707,0.009100484901855927,1791572782292838111
-0.09314632415771484,0.4158933758735657,-0.006584279662529942,1791572782319972565
-0.10249733924865723,-0.4831849932670593,-0.016068499756369585,1791572782350098983
-0.10113763809204102,0.3207671046257019,-0.0047037857545029335,1791572782379806583
0.18831199407577515,0.18919962644577026,-0.0021499621612531277,1791572782410155292
0.021256089210510254,-0.36971986293792725,-0.010268830796470525,1791572782439763354
-0.37743210792541504,0.5737009644508362,0.004157352648125504,1791572782469669109
-0.2821783423423767,-0.7301772832870483,-0.011180605617063917,1791572782501087210
0.06537395715713501,0.12704509496688843,-0.0023058970449487937,1791572782532137944
-0.03100532293319702,0.21430134773254395,0.003936752456465562,1791572782560108018
0.4269779920578003,-0.2318938970565796,-0.01995667510384321,1791572782589442065
0.05929440259933472,0.19012171030044556,0.011609426920750636,1791572782619417542
0.07307660579681396,-0.31906408071517944,-0.019711077492316823,1791572782649385472
-0.4605276584625244,0.44330453872680664,0.01277453011010629,1791572782678331794
0.3413999676704407,-0.4071885347366333,-0.0027796720293877582,1791572782709386994
-0.22996842861175537,0.18719613552093506,-0.016338831509565204,1791572782740981301
0.1271558403968811,-0.1257970929145813,0.0009705711445100224,1791572782771919443
-0.09904360771179199,-0.2831695079803467,0.013169478137629432,1791572782799260636
0.241765558719635,0.6161001920700073,0.026245636124361506,1791572782829062154
-0.3843165636062622,-0.3291098475456238,-0.005269755865743901,1791572782851580302
0.10621744394302368,0.15767192840576172,0.011764908243862126,1791572782888965269
0.22042596340179443,0.042604029178619385,-0.006222046064176253,1791572782918964903
-0.30816251039505005,0.03184843063354492,-0.0005465262688060612,1791572782949181328
-0.13053935766220093,0.08603745698928833,0.01183870819562095,1791572782980869897
0.15586137771606445,-0.15824568271636963,-0.03446728706624047,1791572783010817544
-0.3411692976951599,0.18396222591400146,-0.016028539249502777,1791572783038766050
0.2563990354537964,-0.2892696261405945,0.004049461276844541,1791572783068674949
-0.3914368152618408,-0.01240396499633789,0.0019024365506968264,1791572783098673671
0.4395780563354492,0.09121215343475342,0.004194739475052792,1791572783128555819
